Time (seconds),acc_x,acc_y,acc_z,gyro_x,gyro_y,gyro_z
0.020337121399664395,-0.218868002295494,-0.9835639595985411,0.0087839998304843,-0.2450000047683715,0.7350000143051147,-0.3499999940395355
0.04067424279932879,-0.2178919911384582,-0.981611967086792,0.013663999736309,-0.1050000041723251,1.3650000095367432,-0.3149999976158142
0.06101136419899318,-0.2149640023708343,-0.9772199988365172,0.0185439996421337,-0.0175000000745058,2.1700000762939453,0.1225000023841857
0.08134848559865758,-0.2134999930858612,-0.9723399877548218,0.0207399986684322,0.3499999940395355,2.502500057220459,0.1574999988079071
0.10168560699832198,-0.2098399996757507,-0.9694119691848756,0.0192760005593299,0.5425000190734863,2.275000095367432,-0.3675000071525574
0.12202272839798638,-0.2142319977283477,-0.9703879952430724,0.0146399997174739,0.1924999952316284,1.6100000143051147,-1.0149999856948853
0.14235984979765076,-0.2198439985513687,-0.9757559895515442,0.0134199997410178,-0.2100000083446502,1.6449999809265137,-1.225000023841858
0.16269697119731516,-0.2225279957056045,-0.9806360006332396,0.0151279997080564,0.0175000000745058,2.5899999141693115,-0.7175000309944153
0.18303409259697956,-0.2230159938335418,-0.9799039959907532,0.010491999797523,0.4900000095367431,3.5174999237060547,-0.2100000083446502
0.20337121399664396,-0.2215519994497299,-0.977463960647583,0.0082959998399019,0.5950000286102295,3.5,0.0525000020861625
0.22370833539630836,-0.2171600013971328,-0.9716079831123352,0.006343999877572,0.262499988079071,3.0625,0.2275000065565109
0.24404545679597275,-0.2108159959316253,-0.96697199344635,0.0090279998257756,-0.7350000143051147,2.5199999809265137,0.4550000131130218
0.26438257819563715,-0.2105719894170761,-0.9735599756240844,0.0114679997786879,-1.2949999570846558,2.1875,0.4900000095367431
0.2847196995953015,-0.2154520004987716,-0.9794159531593324,0.013663999736309,-1.1549999713897705,1.7675000429153442,0.4200000166893005
0.3050568209949659,-0.2156959921121597,-0.9808799624443054,0.0173240005970001,-1.6974999904632568,1.190000057220459,0.4025000035762787
0.32539394239463026,-0.2081319987773895,-0.981123983860016,0.0163480006158351,-2.240000009536743,1.3300000429153442,0.4724999964237213
0.34573106379429464,-0.2032520025968551,-0.981611967086792,0.013663999736309,-2.6424999237060547,2.345000028610229,0.5249999761581421
0.366068185193959,-0.2049599885940551,-0.9830759763717652,0.0109799997881054,-2.712500095367432,3.115000009536743,0.332500010728836
0.3864053065936234,-0.2137439996004104,-0.981123983860016,0.0114679997786879,-2.502500057220459,2.992500066757202,-0.0350000001490116
0.40674242799328775,-0.2235039919614792,-0.9833199977874756,0.0141519997268915,-2.852499961853028,2.6424999237060547,0.1050000041723251
0.4270795493929521,-0.2239919900894165,-0.9796599745750428,0.0151279997080564,-3.202500104904175,2.9749999046325684,0.4724999964237213
0.4474166707926165,-0.2181359976530075,-0.9747799634933472,0.0090279998257756,-3.4825000762939453,3.8324999809265137,0.7350000143051147
0.46775379219228086,-0.2127679884433746,-0.969655990600586,0.0029279999434947,-3.569999933242798,4.690000057220459,0.8224999904632568
0.48809091359194523,-0.2113039940595626,-0.9720959663391112,0.0004879999905824,-3.377500057220459,5.337500095367432,0.6299999952316284
0.5084280349916096,-0.2139879912137985,-0.9847840070724488,0.0012199999764561,-2.362499952316284,5.547500133514404,-0.2450000047683715
0.528765156391274,-0.2200879901647567,-0.9786840081214904,0.0014639999717473,-1.8725000619888303,5.914999961853027,-0.5074999928474426
0.5491022777909383,-0.2237479984760284,-0.9708759784698486,0.0002439999952912,-1.2424999475479126,6.684999942779541,-0.3849999904632568
0.5694393991906027,-0.2269199937582016,-0.9720959663391112,0.0007319999858736,-0.4724999964237213,7.034999847412109,-0.5600000023841858
0.5897765205902671,-0.2237479984760284,-0.9801479578018188,-0.0041479999199509,0.1574999988079071,7.105000019073486,-0.8050000071525574
0.6101136419899315,-0.2213079929351806,-0.9803919792175292,-0.0056119998916983,0.8400000333786011,7.175000190734863,-1.0674999952316284
0.6304507633895958,-0.2198439985513687,-0.9708759784698486,-0.0060999998822808,1.3825000524520874,7.297500133514404,-1.347499966621399
0.6507878847892602,-0.2227720022201538,-0.9691680073738098,-0.0087839998304843,2.2049999237060547,6.947500228881836,-1.6100000143051147
0.6711250061889246,-0.2222839891910553,-0.970143973827362,-0.0075639998540282,3.3600001335144043,5.827499866485596,-1.7675000429153442
0.6914621275885889,-0.2183799892663955,-0.966484010219574,-0.0126879997551441,3.202500104904175,5.337500095367432,-1.399999976158142
0.7117992489882533,-0.2134999930858612,-0.9674599766731262,-0.020983999595046,2.9574999809265137,5.775000095367432,-0.9275000095367432
0.7321363703879177,-0.2134999930858612,-0.9652639627456664,-0.0226919986307621,2.940000057220459,6.369999885559082,-0.6650000214576721
0.752473491787582,-0.2164279967546463,-0.9659959673881532,-0.0148839997127652,2.5899999141693115,6.510000228881836,-0.5950000286102295
0.7728106131872464,-0.2156959921121597,-0.9713639616966248,-0.0046359999105334,2.275000095367432,6.195000171661377,-0.4900000095367431
0.7931477345869108,-0.2052039951086044,-0.975268006324768,0.002195999957621,2.380000114440918,6.177500247955322,-0.5074999928474426
0.8134848559865752,-0.20032399892807,-0.975268006324768,-0.0029279999434947,2.9049999713897705,6.684999942779541,-0.7524999976158142
0.8338219773862395,-0.1969079971313476,-0.9845399856567384,-0.0178119987249374,3.202500104904175,7.367499828338623,-1.0325000286102295
0.8541590987859039,-0.1951999962329864,-0.9952759742736816,-0.0248879995197057,3.1675000190734863,8.732500076293945,-1.190000057220459
0.8744962201855683,-0.2078879922628402,-0.998203992843628,-0.013663999736309,3.3424999713897705,9.730000495910645,-1.6449999809265137
0.8948333415852326,-0.234484001994133,-0.9999119639396667,0.0187879987061023,3.3424999713897705,9.782500267028809,-2.1700000762939453
0.915170462984897,-0.2291159927845001,-0.9918599724769592,0.0470919981598854,3.587500095367432,9.957500457763672,-1.9075000286102293
0.9355075843845614,-0.2091079950332641,-0.9938119649887084,0.0470919981598854,5.704999923706055,9.414999961853027,-1.399999976158142
0.9558447057842258,-0.1991039961576461,-0.9969840049743652,0.0341599993407726,9.642499923706056,7.752500057220459,-2.327500104904175
0.9761818271838901,-0.1934919953346252,-0.9984479546546936,0.0307439994066953,12.8100004196167,5.197500228881836,-4.53249979019165
0.9965189485835545,-0.1878799945116043,-0.9950319528579712,0.0414799973368644,11.917500495910645,3.3600001335144043,-6.352499961853027
1.016856069983219,-0.1849519908428192,-0.990884006023407,0.0527039989829063,9.15250015258789,3.289999961853028,-7.822500228881836
1.0371931913828834,-0.1856839954853058,-0.9916160106658936,0.0609999969601631,8.34749984741211,3.5174999237060547,-9.537500381469728
1.0575303127825477,-0.1871479898691177,-0.9964959621429444,0.0570959970355033,10.744999885559082,3.2725000381469727,-10.920000076293944
1.077867434182212,-0.1915400028228759,-1.0035719871520996,0.0595359988510608,14.03499984741211,2.309999942779541,-11.427499771118164
1.0982045555818765,-0.1925159990787506,-0.9989359974861144,0.071492001414299,16.100000381469727,0.7524999976158142,-11.199999809265137
1.1185416769815408,-0.1922719925642013,-0.9860039949417114,0.1093119978904724,20.57999992370605,-2.694999933242798,-11.654999732971191
1.1388787983812052,-0.1810479909181594,-0.9833199977874756,0.118827998638153,23.15250015258789,-3.762500047683716,-12.31999969482422
1.1592159197808696,-0.1664080023765564,-0.9823439717292786,0.1171199977397918,25.30500030517578,-3.4124999046325684,-12.8100004196167
1.179553041180534,-0.1527439951896667,-0.975268006324768,0.1110199987888336,26.372499465942383,-2.484999895095825,-13.457500457763672
1.1998901625801983,-0.1439599990844726,-0.97843998670578,0.1149239987134933,26.967500686645508,-1.4700000286102295,-15.067500114440918
1.2202272839798627,-0.1410319954156875,-0.97843998670578,0.1254159957170486,27.755001068115234,-0.5074999928474426,-17.587499618530273
1.240564405379527,-0.1417640000581741,-0.9864919781684875,0.1390800029039383,29.26000022888184,0.1924999952316284,-19.98500061035156
1.2609015267791914,-0.1456679999828338,-1.00381600856781,0.1481079906225204,31.290000915527344,0.6650000214576721,-21.752500534057617
1.2812386481788558,-0.1439599990844726,-1.0257760286331177,0.1617719978094101,34.5099983215332,0.5425000190734863,-24.44750022888184
1.3015757695785202,-0.1464000046253204,-1.043344020843506,0.1671399921178817,37.65999984741211,-0.0874999985098838,-27.51000022888184
1.3219128909781845,-0.1295640021562576,-1.0538359880447388,0.1754359900951385,39.20000076293945,-1.1200000047683716,-29.487499237060547
1.342250012377849,-0.1066280007362365,-1.060912013053894,0.1727519929409027,39.67250061035156,-2.0824999809265137,-30.607500076293945
1.3625871337775133,-0.0780799984931945,-1.065060019493103,0.183243989944458,39.07749938964844,-2.3975000381469727,-31.237499237060547
1.3829242551771777,-0.0497759990394115,-1.065060019493103,0.1954440027475357,37.79999923706055,-1.399999976158142,-30.467500686645508
1.403261376576842,-0.0285479985177516,-1.06359601020813,0.1915400028228759,35.90999984741211,-0.5774999856948853,-28.64750099182129
1.4235984979765064,-0.0068319998681545,-1.0472480058670044,0.1886119991540908,31.21999931335449,-0.262499988079071,-27.895000457763672
1.4439356193761708,0.0080519998446106,-1.0172359943389893,0.1854400038719177,25.82999992370605,1.6974999904632568,-27.57999992370605
1.4642727407758351,0.0048799999058246,-1.010159969329834,0.1590880006551742,20.229999542236328,2.940000057220459,-25.934999465942383
1.4846098621754995,0.0036599999293684,-0.9989359974861144,0.153231993317604,14.664999961853027,0.0525000020861625,-22.540000915527344
1.5049469835751639,0.0131759997457265,-0.9972279667854308,0.1644559949636459,10.43000030517578,-4.235000133514404,-18.77750015258789
1.5252841049748282,-0.0046359999105334,-0.9791719913482666,0.1710439920425415,11.182499885559082,-6.929999828338623,-17.202499389648438
1.5456212263744926,-0.0231800004839897,-0.96697199344635,0.1712879985570907,14.210000038146973,-8.680000305175781,-16.625
1.565958347774157,-0.0485559999942779,-0.949404001235962,0.1778759956359863,18.40999984741211,-11.8125,-16.65999984741211
1.5862954691738214,-0.0661239996552467,-0.924515962600708,0.1883679926395416,21.06999969482422,-17.114999771118164,-15.295000076293944
1.6066325905734857,-0.0639280006289482,-0.9196360111236572,0.1998360008001327,20.877500534057617,-23.4325008392334,-12.28499984741211
1.62696971197315,-0.0585599988698959,-0.9057279825210572,0.216183990240097,21.420000076293945,-29.32999992370605,-9.274999618530272
1.6473068333728145,-0.0295239984989166,-0.9064599871635436,0.2386319935321808,20.28249931335449,-32.689998626708984,-6.947500228881836
1.6676439547724788,-0.0053679998964071,-0.9176839590072632,0.2442439943552017,18.34000015258789,-32.70750045776367,-4.007500171661377
1.6879810761721432,0.0168359987437725,-0.941107988357544,0.2115480005741119,17.045000076293945,-32.35750198364258,-1.7324999570846558
1.7083181975718076,0.0441639982163906,-0.9523319602012634,0.1825120002031326,17.604999542236328,-33.72249984741211,0.2975000143051147
1.728655318971472,0.0558759979903698,-0.9481839537620544,0.1847079992294311,19.38999938964844,-37.29249954223633,3.8324999809265137
1.7489924403711363,0.0509959980845451,-0.9320799708366394,0.1912959963083267,22.872499465942383,-39.00749969482422,5.302500247955322
1.7693295617708007,0.0505079999566078,-0.9201239943504332,0.1995919942855835,23.22249984741211,-41.14250183105469,7.612500190734863
1.789666683170465,0.0468479990959167,-0.9154880046844482,0.2076440006494522,21.82250022888184,-42.06999969482422,11.74250030517578
1.8100038045701294,0.0548999980092048,-0.9252479672431946,0.2278959900140762,21.80500030517578,-41.352500915527344,16.239999771118164
1.8303409259697938,0.0636840015649795,-0.9469639658927916,0.2393639981746673,24.43000030517578,-39.79500198364258,20.09000015258789
1.8506780473694582,0.0732000023126602,-0.958675980567932,0.2193560004234314,26.040000915527344,-40.72249984741211,22.575000762939453
1.8710151687691225,0.0812520012259483,-0.9459879994392396,0.2183799892663955,34.19499969482422,-39.375,24.587499618530277
1.891352290168787,0.1017479971051216,-0.9059720039367676,0.2025199979543686,34.334999084472656,-37.93999862670898,27.19499969482422
1.9116894115684513,0.076615996658802,-0.9096319675445556,0.1895879954099655,26.84499931335449,-36.20750045776367,28.104999542236328
1.9320265329681157,0.0678320005536079,-0.9313479661941528,0.1622599959373474,16.502500534057617,-35.962501525878906,22.96000099182129
1.95236365436778,0.0588039979338645,-0.9506239891052246,0.1722639948129654,14.94499969482422,-33.86249923706055,17.325000762939453
1.9727007757674444,0.0080519998446106,-0.9637999534606934,0.1910519897937774,16.65999984741211,-32.47999954223633,24.3075008392334
1.9930378971671088,-0.0983319953083992,-1.001376032829285,0.2469279915094375,19.162500381469727,-33.022499084472656,38.37749862670898
2.0133750185667734,-0.1764120012521743,-1.0772600173950195,0.3071959912776947,18.6200008392334,-38.56999969482422,39.584999084472656
2.033712139966438,-0.1634799987077713,-1.0613999366760254,0.3250080049037933,21.6299991607666,-44.55500030517578,24.237499237060547
2.0540492613661026,-0.1115079969167709,-1.007475972175598,0.3301320075988769,21.332500457763672,-48.790000915527344,13.579999923706056
2.074386382765767,-0.0614879988133907,-0.9274439811706544,0.3201279938220978,13.96500015258789,-51.95750045776367,11.2524995803833
2.0947235041654317,-0.0822279974818229,-0.8879159688949585,0.3596560060977936,3.0450000762939453,-56.244998931884766,13.807499885559082
2.1150606255650963,-0.1317600011825561,-0.9318360090255736,0.4301719963550567,-7.297500133514404,-61.915000915527344,13.19499969482422
2.135397746964761,-0.1324919909238815,-0.9559919834136964,0.4726279973983764,-8.27750015258789,-67.0250015258789,9.572500228881836
2.1557348683644255,-0.0990639999508857,-0.9284200072288512,0.4736039936542511,-1.4524999856948853,-63.997501373291016,7.157500267028809
2.17607198976409,-0.0412359982728958,-0.8801079988479614,0.460671991109848,-0.2275000065565109,-57.48749923706055,12.460000038146973
2.1964091111637547,-0.0153719997033476,-0.8742519617080688,0.4462759792804718,-7.420000076293945,-53.900001525878906,21.64750099182129
2.2167462325634193,-0.0195199996232986,-0.9057279825210572,0.4455440044403076,-13.404999732971191,-55.96500015258789,27.05500030517578
2.237083353963084,-0.046604000031948,-0.9777079820632936,0.4997119903564453,-14.350000381469728,-62.82500076293945,29.27750015258789
2.2574204753627485,-0.0973559990525245,-1.0082080364227295,0.5433880090713501,-8.977499961853027,-67.8125,30.92250061035156
2.277757596762413,-0.085887998342514,-1.0389519929885864,0.5411919951438904,0.9800000190734864,-64.68000030517578,30.274999618530277
2.2980947181620777,0.0014639999717473,-1.0738439559936523,0.5075199604034424,3.4124999046325684,-62.05500030517578,36.959999084472656
2.3184318395617423,0.05197199806571,-0.9786840081214904,0.4909279942512512,11.357500076293944,-61.442501068115234,38.09749984741211
2.338768960961407,0.0146399997174739,-0.8005639910697937,0.3811279833316803,5.179999828338623,-77.89250183105469,31.90250015258789
2.3591060823610714,0.0331839993596077,-0.7712839841842651,0.4318799972534179,-3.5174999237060547,-72.15250396728516,35.80500030517578
2.379443203760736,0.0353799983859062,-0.7805559635162354,0.4555479884147644,-7.804999828338623,-65.66000366210938,40.96749877929688
2.3997803251604006,0.0043919999152421,-0.8103240132331848,0.4604279994964599,-9.975000381469728,-62.40499877929688,43.38249969482422
2.420117446560065,-0.0097599998116493,-0.8220359683036804,0.4472520053386688,-10.289999961853027,-61.477500915527344,39.970001220703125
2.44045456795973,-0.0280600003898143,-0.8537560105323792,0.4313919842243194,-13.824999809265137,-62.1775016784668,35.77000045776367
2.4607916893593944,-0.0339160002768039,-0.8779119849205017,0.4069919884204864,-14.80500030517578,-65.7300033569336,30.59000015258789
2.481128810759059,-0.0292799994349479,-0.888159990310669,0.3989399969577789,-13.6850004196167,-66.6050033569336,25.6200008392334
2.5014659321587236,-0.0256199985742568,-0.8908439874649048,0.3947919905185699,-15.329999923706056,-66.62249755859375,23.309999465942383
2.521803053558388,-0.0222040005028247,-0.8984079957008362,0.3952800035476684,-17.149999618530273,-67.19999694824219,21.122499465942383
2.542140174958053,-0.0287919994443655,-0.9091439843177797,0.3974759876728058,-17.184999465942383,-66.36000061035156,18.200000762939453
2.5624772963577174,-0.05197199806571,-0.9008479714393616,0.399183988571167,-15.399999618530272,-64.27750396728516,14.90999984741211
2.582814417757382,-0.0590479969978332,-0.9054839611053468,0.3730759918689728,-15.942500114440918,-61.59999847412109,11.760000228881836
2.6031515391570466,-0.037331998348236,-0.9064599871635436,0.3699039816856384,-17.604999542236328,-58.04750061035156,9.292500495910645
2.623488660556711,-0.0185439996421337,-0.9108519554138184,0.3486759960651397,-20.212499618530277,-54.14500045776367,9.11750030517578
2.6438257819563757,-0.0002439999952912,-0.9067040085792542,0.3447719812393188,-23.239999771118164,-50.3650016784668,9.082500457763672
2.6641629033560403,-0.0273279994726181,-0.8915759921073914,0.3240320086479187,-26.424999237060547,-45.9900016784668,8.050000190734863
2.684500024755705,-0.0534359999001026,-0.8874279856681824,0.3379400074481964,-30.59000015258789,-42.647499084472656,6.737500190734863
2.7048371461553695,-0.0644159987568855,-0.9020679593086244,0.3425759971141815,-33.337501525878906,-38.150001525878906,5.302500247955322
2.725174267555034,-0.0910120010375976,-0.924027979373932,0.3476999998092651,-33.14500045776367,-34.58000183105469,1.4874999523162842
2.7455113889546987,-0.0907679945230484,-0.948915958404541,0.3384279906749725,-31.290000915527344,-32.462501525878906,-1.680000066757202
2.7658485103543633,-0.0854000002145767,-0.9389119744300842,0.3367199897766113,-26.950000762939453,-31.377500534057617,-6.667500019073486
2.786185631754028,-0.1117519959807396,-0.9403759837150574,0.3079279959201813,-22.645000457763672,-30.030000686645508,-9.11750030517578
2.8065227531536925,-0.1176079958677291,-0.9406200051307678,0.3028039932250976,-19.302499771118164,-31.36000061035156,-9.0649995803833
2.826859874553357,-0.0946719944477081,-0.9598959684371948,0.2996319830417633,-17.86750030517578,-32.30500030517578,-8.399999618530273
2.8471969959530217,-0.0795440003275871,-0.9855159521102904,0.2837719917297363,-16.309999465942383,-32.095001220703125,-7.490000247955322
2.8675341173526863,-0.0627079978585243,-1.0472480058670044,0.2693759799003601,-14.4375,-33.31999969482422,-4.760000228881836
2.887871238752351,-0.0436760000884532,-1.0628639459609983,0.2540040016174316,-7.577499866485596,-36.505001068115234,-3.1675000190734863
2.9082083601520154,0.0087839998304843,-1.0223599672317505,0.2925559878349304,1.5225000381469729,-38.34249877929688,-2.3975000381469727
2.92854548155168,0.1256600022315979,-1.0418800115585327,0.3325719833374023,6.264999866485596,-34.790000915527344,1.4175000190734863
2.9488826029513446,0.1027240008115768,-1.099463939666748,0.2947520017623901,22.417499542236328,-23.625,17.079999923706055
2.9692197243510092,0.104432001709938,-0.975268006324768,0.2449759989976883,28.770000457763672,-22.854999542236328,23.11750030517578
2.989556845750674,0.1412760019302368,-0.8752279877662659,0.2671799957752228,29.46999931335449,-19.354999542236328,22.1200008392334
3.0098939671503384,0.1766559928655624,-0.8476560115814209,0.2842600047588348,28.4375,-12.390000343322754,16.905000686645508
3.030231088550003,0.1466439962387085,-0.9228079915046692,0.2713280022144317,22.924999237060547,-6.684999942779541,15.260000228881836
3.0505682099496676,0.0954039990901947,-0.9620919823646544,0.2659600079059601,17.09749984741211,-8.225000381469727,15.837499618530272
3.070905331349332,0.05197199806571,-0.9679479598999025,0.2998760044574737,13.05500030517578,-12.145000457763672,12.61750030517578
3.091242452748997,0.0578279979526996,-0.9781959652900696,0.3394039869308471,11.112500190734863,-15.645000457763672,5.127500057220459
3.1115795741486614,0.0927200019359588,-0.9591639637947084,0.3237879872322082,11.532500267028809,-18.795000076293945,-2.940000057220459
3.131916695548326,0.1464000046253204,-0.9555040001869202,0.3052439987659454,6.107500076293945,-23.415000915527344,-8.364999771118164
3.1522538169479906,0.1864160001277923,-0.9977160096168518,0.2898719906806946,-1.2949999570846558,-27.614999771118164,-10.850000381469728
3.172590938347655,0.2044719904661178,-0.9789279699325562,0.2659600079059601,-2.257499933242798,-31.290000915527344,-12.862500190734863
3.1929280597473197,0.1844639927148819,-0.9745360016822816,0.2747440040111542,-2.0824999809265137,-35.29750061035156,-15.4350004196167
3.2132651811469843,0.1722639948129654,-0.9637999534606934,0.2659600079059601,-1.8899999856948853,-41.685001373291016,-20.002500534057617
3.233602302546649,0.1498159915208816,-0.974291980266571,0.2508319914340973,-5.302500247955322,-48.47499847412109,-22.924999237060547
3.2539394239463135,0.1415199935436248,-0.952575981616974,0.2215519994497299,-4.445000171661377,-50.872501373291016,-22.46999931335449
3.274276545345978,0.1612839996814727,-0.9523319602012634,0.2481479942798614,-1.9424999952316284,-54.63500213623047,-18.67250061035156
3.2946136667456427,0.1888559907674789,-0.8825479745864868,0.2857239842414856,4.952499866485596,-55.05500030517578,-12.880000114440918
3.3149507881453073,0.1771439909934997,-0.9169519543647766,0.3025600016117096,4.8125,-57.13750076293945,-4.900000095367432
3.335287909544972,0.1971519887447357,-0.9606279730796814,0.3042680025100708,7.997499942779541,-59.83250045776367,-2.2925000190734863
3.3556250309446365,0.2271640002727508,-0.92085599899292,0.3469679951667785,14.350000381469728,-63.4900016784668,-0.2800000011920929
3.375962152344301,0.2679120004177093,-0.9115839600563048,0.3411119878292084,17.3075008392334,-61.337501525878906,2.852499961853028
3.3962992737439657,0.2871879935264587,-0.8854759931564331,0.3401359915733337,13.702500343322754,-58.625,3.920000076293945
3.4166363951436303,0.2693759799003601,-0.8457039594650269,0.334767997264862,6.125,-58.275001525878906,2.4674999713897705
3.436973516543295,0.27742800116539,-0.8264279961585999,0.3540439903736114,-1.924999952316284,-60.375,-0.1749999970197677
3.4573106379429595,0.2286279946565628,-0.8452159762382507,0.3198840022087097,-8.417500495910645,-61.52999877929688,1.347499966621399
3.477647759342624,0.1749479919672012,-0.8779119849205017,0.3457480072975158,-2.9049999713897705,-61.07500076293945,-1.8725000619888303
3.4979848807422886,0.1951999962329864,-0.8298439979553223,0.3611199855804443,2.065000057220459,-62.03749847412109,-4.987500190734863
3.5183220021419532,0.1495719999074936,-0.7988559603691101,0.3289119899272918,-6.317500114440918,-59.83250045776367,14.105000495910645
3.538659123541618,0.1493279933929443,-0.8110559582710266,0.3418439924716949,-22.90749931335449,-62.790000915527344,32.8650016784668
3.5589962449412824,0.1515239924192428,-0.9174399971961976,0.3193959891796112,-18.427499771118164,-69.86000061035156,37.1875
3.579333366340947,0.196175992488861,-0.9667279720306396,0.3274479806423187,-18.042499542236328,-73.13249969482422,37.64250183105469
3.5996704877406116,0.2457079887390136,-1.02211594581604,0.3206160068511963,-13.545000076293944,-73.9375,33.459999084472656
3.620007609140276,0.2776719927787781,-1.044319987297058,0.3137840032577514,-4.287499904632568,-74.25250244140625,26.98500061035156
3.640344730539941,0.30621999502182,-1.0294359922409058,0.2810879945755005,3.325000047683716,-73.46500396728516,20.42250061035156
3.6606818519396054,0.3150039911270141,-1.0062559843063354,0.253271996974945,8.732500076293945,-72.99250030517578,15.837499618530272
3.68101897333927,0.2962159812450409,-1.0335839986801147,0.2283839881420135,13.789999961853027,-72.46749877929688,11.672499656677246
3.7013560947389346,0.2793799936771393,-1.0572519302368164,0.2618120014667511,20.63249969482422,-72.37999725341797,6.929999828338623
3.721693216138599,0.2393639981746673,-1.097267985343933,0.2898719906806946,24.95499992370605,-72.90499877929688,0.0700000002980232
3.7420303375382638,0.2742559909820556,-1.0455399751663208,0.2393639981746673,31.97249984741211,-69.84249877929688,-10.045000076293944
3.7623674589379283,0.3606320023536682,-0.9474520087242126,0.1576239913702011,36.102500915527344,-61.6875,-16.082500457763672
3.782704580337593,0.4047960042953491,-0.9345200061798096,0.1332239955663681,36.3125,-52.9375,-14.175000190734863
3.8030417017372575,0.4152880012989044,-1.013819932937622,0.2093520015478134,43.85499954223633,-47.897499084472656,-8.382499694824219
3.823378823136922,0.3821039795875549,-1.1716879606246948,0.2952399849891662,54.14500045776367,-40.6875,-0.699999988079071
3.8437159445365867,0.2305800020694732,-1.2258559465408323,0.3374519944190979,64.4175033569336,-31.114999771118164,3.815000057220459
3.8640530659362513,0.0802759975194931,-1.0828720331192017,0.3162239789962768,69.96500396728516,-31.762500762939453,4.304999828338623
3.884390187335916,-0.0046359999105334,-0.8771799802780151,0.2300919890403747,68.21500396728516,-36.435001373291016,8.399999618530273
3.9047273087355805,-0.0117119997739791,-0.7473719716072083,0.2300919890403747,62.96500015258789,-31.86750030517578,18.479999542236328
3.925064430135245,0.0109799997881054,-0.7312679886817932,0.3254959881305694,49.192501068115234,-23.975000381469727,31.53499984741211
3.9454015515349097,0.0568519979715347,-0.7920239567756653,0.4152880012989044,27.614999771118164,-21.315000534057617,42.06999969482422
3.9657386729345743,0.0697840005159378,-1.0230920314788818,0.4338319897651672,7.577499866485596,-23.274999618530277,49.06999969482422
3.986075794334239,0.0568519979715347,-1.1311839818954468,0.4213880002498626,18.217500686645508,-24.674999237060547,42.595001220703125
4.006412915733903,0.0824719965457916,-0.9230519533157348,0.4316360056400299,43.29500198364258,-25.059999465942383,32.567501068115234
4.026750037133567,0.1507920026779174,-0.8459479808807373,0.4745799899101257,46.04249954223633,-24.0625,33.25
4.047087158533231,0.1586000025272369,-0.8127639889717102,0.427731990814209,39.30500030517578,-20.982500076293945,33.897499084472656
4.0674242799328955,0.1100439950823783,-0.7246800065040588,0.3655119836330414,27.86000061035156,-18.84749984741211,34.29999923706055
4.08776140133256,0.0339160002768039,-0.712723970413208,0.3237879872322082,8.27750015258789,-19.967500686645508,36.977500915527344
4.108098522732224,-0.0007319999858736,-0.7363919615745544,0.3752720057964325,-8.34749984741211,-21.57749938964844,39.3224983215332
4.128435644131888,-0.0060999998822808,-0.831063985824585,0.440420001745224,-18.602500915527344,-20.63249969482422,40.75749969482422
4.148772765531552,-0.0056119998916983,-0.9049959778785706,0.4740919768810272,-17.13249969482422,-18.427499771118164,38.9375
4.169109886931216,-0.0468479990959167,-0.9162200093269348,0.4477399885654449,-2.625,-20.96500015258789,33.7400016784668
4.18944700833088,-0.0500199981033802,-0.8803519606590271,0.4335879981517792,-0.1050000041723251,-23.467500686645508,32.7599983215332
4.2097841297305445,-0.0331839993596077,-0.8369199633598328,0.4208999872207641,-0.5074999928474426,-24.237499237060547,32.375
4.230121251130209,-0.0087839998304843,-0.7929999828338623,0.4377360045909881,-2.275000095367432,-23.4325008392334,30.520000457763672
4.250458372529873,0.0229359995573759,-0.7888519763946533,0.4643319845199585,-7.402500152587891,-21.15749931335449,28.64750099182129
4.270795493929537,0.0463600009679794,-0.8239879608154297,0.4755559861660003,-12.18000030517578,-17.954999923706055,26.565000534057617
4.291132615329201,0.0583159998059272,-0.8747400045394897,0.4860479831695556,-13.352499961853027,-15.75,22.9424991607666
4.311469736728865,0.0736880004405975,-0.8747400045394897,0.4948319792747497,-9.607500076293944,-14.612500190734863,17.184999465942383
4.331806858128529,0.0597799979150295,-0.871567964553833,0.4950760006904602,-5.565000057220459,-12.827500343322754,12.074999809265137
4.3521439795281935,0.033671997487545,-0.856440007686615,0.5109359622001648,-3.377500057220459,-10.954999923706056,9.730000495910645
4.372481100927858,0.0261080004274845,-0.8747400045394897,0.5275279879570007,-3.8324999809265137,-8.855000495910645,10.56999969482422
4.392818222327522,0.0334279984235763,-0.8869400024414062,0.5387519598007202,-1.7675000429153442,-3.5174999237060547,12.18000030517578
4.413155343727186,0.0448959991335868,-0.8891359567642212,0.5487560033798218,1.5225000381469729,1.0499999523162842,12.109999656677246
4.43349246512685,0.020983999595046,-0.8730319738388062,0.5407040119171143,6.142499923706055,4.112500190734863,9.414999961853027
4.453829586526514,-0.0873520001769065,-0.8910880088806152,0.5241119861602783,6.737500190734863,5.372499942779541,7.769999980926514
4.474166707926178,-0.1525000035762787,-1.0311440229415894,0.5426560044288635,2.257499933242798,7.927500247955322,8.260000228881836
4.494503829325843,-0.1271239966154098,-1.1812039613723757,0.594871997833252,3.220000028610229,9.5024995803833,11.917500495910645
4.514840950725507,-0.1437159925699234,-1.1902319192886353,0.5597360134124756,14.664999961853027,3.552500009536743,12.600000381469728
4.535178072125171,-0.1581119894981384,-1.0294359922409058,0.52947998046875,26.46000099182129,-8.487500190734863,6.702499866485596
4.555515193524835,-0.1598199903964996,-0.8693720102310181,0.4911719858646393,24.27250099182129,-14.279999732971191,-0.2100000083446502
4.575852314924499,-0.1266359984874725,-0.868395984172821,0.4233399927616119,11.567500114440918,-14.315000534057615,-5.425000190734863
4.596189436324163,-0.0907679945230484,-0.9620919823646544,0.38332399725914,3.972500085830689,-19.670000076293945,-12.704999923706056
4.6165265577238275,-0.0048799999058246,-1.0450519323349,0.3577039837837219,5.215000152587891,-26.21500015258789,-19.70499992370605
4.636863679123492,0.0946719944477081,-1.040903925895691,0.3201279938220978,10.762499809265137,-28.700000762939453,-22.137500762939453
4.657200800523156,0.1368840038776397,-0.9408639669418336,0.2366800010204315,19.424999237060547,-30.04750061035156,-25.899999618530277
4.67753792192282,0.1756799966096878,-0.9132919907569884,0.220331996679306,20.614999771118164,-30.39750099182129,-29.207500457763672
4.697875043322484,0.1490840017795562,-0.8659560084342957,0.3047559857368469,16.344999313354492,-26.477500915527344,-27.982500076293945
4.718212164722148,0.0712479948997497,-0.8371639847755432,0.34647998213768,5.652500152587891,-27.28249931335449,-24.9375
4.738549286121812,0.0607559978961944,-0.8744959831237793,0.3484320044517517,-7.682499885559082,-34.755001068115234,-22.802499771118164
4.7588864075214765,0.0356239974498748,-0.944279968738556,0.322079986333847,-14.262499809265137,-37.46749877929688,-22.32999992370605
4.779223528921141,0.1127279996871948,-0.924027979373932,0.3606320023536682,-8.78499984741211,-43.942501068115234,-25.375
4.799560650320805,0.1666519939899444,-0.8400920033454895,0.3330599963665008,-3.3949999809265137,-44.95750045776367,-23.48500061035156
4.819897771720469,0.1861719936132431,-0.7912920117378235,0.3081719875335693,-8.819999694824219,-45.692501068115234,-15.505000114440918
4.840234893120133,0.2113039940595626,-0.8120319843292236,0.2979239821434021,-20.842500686645508,-44.95750045776367,-6.195000171661377
4.860572014519797,0.2503440082073211,-0.8225240111351013,0.2984119951725006,-28.227500915527344,-41.54500198364258,-0.3675000071525574
4.880909135919461,0.2659600079059601,-0.8256959915161133,0.2757200002670288,-32.91749954223633,-36.872501373291016,4.09499979019165
4.9012462573191256,0.2635200023651123,-0.8793759942054749,0.2820639908313751,-36.64500045776367,-33.932498931884766,7.122499942779541
4.92158337871879,0.2564440071582794,-0.8532679677009583,0.2671799957752228,-36.119998931884766,-31.552499771118164,6.720000267028809
4.941920500118454,0.2342399954795837,-0.8437519669532776,0.2676680088043213,-36.68000030517578,-29.067501068115234,8.172499656677246
4.962257621518118,0.2095959931612014,-0.8469240069389343,0.2710839807987213,-37.22249984741211,-26.565000534057617,11.112500190734863
4.982594742917782,0.1964199990034103,-0.8749839663505554,0.2762079834938049,-37.1349983215332,-24.780000686645508,15.119999885559082
5.002931864317446,0.1954440027475357,-0.9247599840164183,0.281819999217987,-34.439998626708984,-24.7450008392334,17.71000099182129
5.0232689857171104,0.2076440006494522,-0.9433040022850036,0.2906039953231811,-29.049999237060547,-24.36000061035156,19.26749992370605
5.043606107116775,0.2232600003480911,-0.9235399961471558,0.3130519986152649,-22.225000381469727,-23.69499969482422,19.98500061035156
5.063943228516439,0.2186239957809448,-0.8898679614067078,0.334524005651474,-17.780000686645508,-23.957500457763672,22.155000686645508
5.084280349916103,0.2342399954795837,-0.9140239953994752,0.3423320055007934,-18.51499938964844,-26.950000762939453,25.549999237060547
5.104617471315767,0.2537599802017212,-0.9408639669418336,0.34647998213768,-19.0049991607666,-29.067501068115234,25.5674991607666
5.124954592715431,0.2357039898633957,-0.9799039959907532,0.3396480083465576,-18.07749938964844,-29.399999618530277,19.28499984741211
5.145291714115095,0.2393639981746673,-0.9769759774208068,0.3491639792919159,-14.50749969482422,-30.817501068115234,9.100000381469728
5.1656288355147595,0.2513200044631958,-0.9637999534606934,0.3330599963665008,-12.092499732971191,-32.91749954223633,3.4124999046325684
5.185965956914424,0.2364359945058822,-0.9535520076751708,0.2930440008640289,-8.27750015258789,-36.18999862670898,2.625
5.206303078314088,0.2371679991483688,-0.9928359985351562,0.2549799978733063,-4.445000171661377,-38.41249847412109,7.262499809265137
5.226640199713752,0.20032399892807,-1.1267919540405271,0.2066679894924163,-0.2975000143051147,-36.8025016784668,10.56999969482422
5.246977321113416,0.3337920010089874,-1.3061319589614868,0.2979239821434021,-0.1749999970197677,-36.837501525878906,8.71500015258789
5.26731444251308,0.2813319861888885,-1.417151927947998,0.2928000092506408,7.192500114440918,-38.34249877929688,-1.190000057220459
5.287651563912744,0.2942639887332916,-1.343951940536499,0.2230159938335418,21.087499618530277,-34.650001525878906,-13.947500228881836
5.3079886853124085,0.2662039995193481,-1.1916959285736084,0.0771040022373199,35.122501373291016,-23.957500457763672,-14.06999969482422
5.328325806712073,0.1725080013275146,-1.0782359838485718,0.052947998046875,47.95000076293945,-22.627500534057617,-5.740000247955322
5.348662928111737,0.0368440002202987,-0.9620919823646544,0.1017479971051216,54.932498931884766,-30.20499992370605,7.070000171661377
5.369000049511401,-0.0914999991655349,-0.9308599829673768,0.2493679970502853,50.66249847412109,-31.51749992370605,21.052499771118164
5.389337170911065,-0.0239119995385408,-0.9391559958457948,0.3120760023593902,48.15999984741211,-14.105000495910645,24.237499237060547
5.409674292310729,0.0741759985685348,-0.9281759858131408,0.2862119972705841,48.96500015258789,-1.225000023841858,28.84000015258789
5.430011413710393,0.140299990773201,-0.9025560021400452,0.2881639897823334,43.68000030517578,3.5,33.880001068115234
5.450348535110058,0.1241960003972053,-0.8491199612617493,0.2237479984760284,39.497501373291016,5.809999942779541,35.97999954223633
5.470685656509722,0.1139479950070381,-0.8603439927101135,0.2549799978733063,27.07250022888184,2.782500028610229,36.067501068115234
5.491022777909386,0.0846679955720901,-0.8842560052871704,0.3215920031070709,16.170000076293945,-0.4200000166893005,31.7450008392334
5.51135989930905,0.0146399997174739,-0.8988959789276123,0.3659999966621399,16.8174991607666,-0.332500010728836,23.8700008392334
5.531697020708714,-0.0212280005216598,-0.8710799813270569,0.403331995010376,29.08500099182129,1.4524999856948853,12.005000114440918
5.552034142108378,-0.0656360015273094,-0.7793359756469727,0.3913759887218475,35.70000076293945,2.852499961853028,7.682499885559082
5.5723712635080425,-0.065880000591278,-0.7764079570770264,0.3979640007019043,25.795000076293945,4.112500190734863,12.704999923706056
5.592708384907707,-0.0487999990582466,-0.7712839841842651,0.4206559956073761,11.357500076293944,5.179999828338623,22.190000534057617
5.613045506307371,-0.0075639998540282,-0.7929999828338623,0.4428599774837494,0.7875000238418579,5.6875,29.75
5.633382627707035,0.0068319998681545,-0.8559519648551941,0.4086999893188476,-7.822500228881836,6.457499980926514,34.369998931884766
5.653719749106699,0.0265959985554218,-0.8625400066375732,0.3891800045967102,-6.090000152587891,5.84499979019165,29.592500686645508
5.674056870506363,0.0009759999811649,-0.8188639879226685,0.3618519902229309,-8.172499656677246,3.430000066757202,29.575000762939453
5.694393991906027,-0.0368440002202987,-0.8500959873199463,0.3689279854297638,-7.28000020980835,-0.612500011920929,21.559999465942383
5.7147311133056915,-0.0258639995008707,-0.7866559624671936,0.4089439809322357,-3.7799999713897705,-1.627500057220459,12.1274995803833
5.735068234705356,-0.0024399999529123,-0.7912920117378235,0.4294399917125702,-5.477499961853027,2.327500104904175,6.474999904632568
5.75540535610502,0.0195199996232986,-0.799344003200531,0.4548159837722778,-6.807499885559082,4.900000095367432,3.430000066757202
5.775742477504684,-0.0012199999764561,-0.8286240100860596,0.4501799941062927,-9.012499809265137,4.427500247955322,2.1875
5.796079598904348,-0.0014639999717473,-0.8649799823760986,0.4557919800281524,-10.272500038146973,1.784999966621399,0.1225000023841857
5.816416720304012,0.0092719998210668,-0.903775990009308,0.4699440002441406,-9.69499969482422,0.0700000002980232,-2.5899999141693115
5.836753841703676,0.0258639995008707,-0.920367956161499,0.4750680029392242,-6.772500038146973,0.9275000095367432,-4.690000057220459
5.8570909631033405,0.0629519969224929,-0.9401319622993468,0.4770199954509735,-4.602499961853027,4.042500019073486,-4.375
5.877428084503005,0.0724679976701736,-0.9716079831123352,0.4811680018901825,-2.4674999713897705,8.942500114440918,-2.6075000762939453
5.897765205902669,0.0707599967718124,-0.9684360027313232,0.5043479800224304,-1.3825000524520874,13.369999885559082,0.612500011920929
5.918102327302333,0.0629519969224929,-0.9062159657478333,0.5333839654922485,1.627500057220459,18.1299991607666,3.009999990463257
5.938439448701997,0.0517279990017414,-0.8652240037918091,0.536799967288971,0.8050000071525574,21.50749969482422,4.182499885559082
5.958776570101661,0.0353799983859062,-0.8603439927101135,0.5470479726791382,-1.0499999523162842,24.20249938964844,4.637499809265137
5.979113691501325,-0.0431879982352256,-0.8993839621543884,0.5475360155105591,-2.9049999713897705,25.795000076293945,5.267499923706055
5.99945081290099,-0.1415199935436248,-1.2065799236297607,0.5592479705810547,-2.887500047683716,28.94499969482422,8.855000495910645
6.019787934300654,-0.1537199914455413,-1.325163960456848,0.5516839623451233,0.1749999970197677,30.957500457763672,19.89750099182129
6.040125055700318,-0.1939799934625625,-1.1963319778442385,0.4814119935035705,5.232500076293945,21.80500030517578,29.61000061035156
6.060462177099982,-0.2413159906864166,-0.9428159594535828,0.4709199965000152,10.954999923706056,6.230000019073486,22.854999542236328
6.080799298499646,-0.3159799873828888,-0.8293559551239014,0.4513999819755554,11.864999771118164,-0.6474999785423279,-0.4375
6.10113641989931,-0.240339994430542,-0.8857199549674988,0.3381839990615845,13.230000495910645,-7.840000152587891,-24.989999771118164
6.1214735412989745,-0.148839995265007,-0.949891984462738,0.2181359976530075,15.27750015258789,-21.787500381469727,-39.462501525878906
6.141810662698639,-0.0573399998247623,-0.9657520055770874,0.2142319977283477,8.645000457763672,-29.32999992370605,-36.18999862670898
6.162147784098303,0.0158599987626075,-0.9486719965934752,0.1934919953346252,-1.190000057220459,-26.739999771118164,-21.997499465942383
6.182484905497967,-0.0458719991147518,-0.8908439874649048,0.1610399931669235,0.0700000002980232,-32.165000915527344,-15.015000343322754
6.202822026897631,-0.0204959996044635,-0.8293559551239014,0.2559559941291809,0.6650000214576721,-42.157501220703125,-12.949999809265137
6.223159148297295,0.0078079998493194,-0.867419958114624,0.3240320086479187,-6.650000095367432,-44.397499084472656,-11.567500114440918
6.243496269696959,0.0356239974498748,-0.8905999660491943,0.2903600037097931,-13.020000457763672,-43.57500076293945,-11.760000228881836
6.2638333910966235,0.0390399992465972,-0.929639995098114,0.2671799957752228,-19.0575008392334,-43.59249877929688,-11.147500038146973
6.284170512496288,0.0485559999942779,-0.9764879941940308,0.2784039974212646,-23.030000686645508,-45.185001373291016,-12.8100004196167
6.304507633895952,0.0817399993538856,-0.9943000078201294,0.2701079845428467,-19.40749931335449,-48.29999923706055,-17.13249969482422
6.324844755295616,0.1298079937696457,-0.9225639700889589,0.2998760044574737,-11.899999618530272,-52.16749954223633,-20.440000534057617
6.34518187669528,0.1642120033502578,-0.832040011882782,0.3130519986152649,-18.00749969482422,-51.32749938964844,-19.530000686645508
6.365518998094944,0.1734839975833892,-0.8081279993057251,0.3101239800453186,-28.962499618530277,-49.45500183105469,-17.86750030517578
6.385856119494608,0.1539639979600906,-0.8288679718971252,0.2791360020637512,-39.91749954223633,-50.977500915527344,-14.577500343322754
6.4061932408942726,0.1456679999828338,-0.8366760015487671,0.2862119972705841,-40.72249984741211,-48.03749847412109,-13.96500015258789
6.426530362293937,0.1461559981107711,-0.8483879566192627,0.2701079845428467,-41.352500915527344,-44.65999984741211,-12.25
6.446867483693601,0.2174039930105209,-0.831063985824585,0.230335995554924,-35.682498931884766,-41.1775016784668,-10.02750015258789
6.467204605093265,0.2076440006494522,-0.7795799970626831,0.2305800020694732,-29.61000061035156,-37.95750045776367,-0.5600000023841858
6.487541726492929,0.2034959942102432,-0.7685999870300293,0.2069119960069656,-31.13249969482422,-34.98250198364258,12.984999656677246
6.507878847892593,0.1927599906921386,-0.786899983882904,0.2332639992237091,-31.762500762939453,-34.772499084472656,22.540000915527344
6.5282159692922574,0.216183990240097,-0.8693720102310181,0.3003639876842499,-33.599998474121094,-34.772499084472656,32.34000015258789
6.548553090691922,0.2022759914398193,-0.9962520003318788,0.3081719875335693,-29.924999237060547,-32.7599983215332,38.63999938964844
6.568890212091586,0.1854400038719177,-1.089460015296936,0.3357439935207367,-20.33500099182129,-31.237499237060547,34.912498474121094
6.58922733349125,0.1815359890460968,-1.091655969619751,0.3801519870758056,-15.925000190734863,-33.459999084472656,23.887500762939453
6.609564454890914,0.218868002295494,-1.099463939666748,0.2737680077552795,-34.29999923706055,-48.66749954223633,1.5399999618530271
6.629901576290578,0.2249680012464523,-1.0618879795074463,0.1822679936885833,-16.782499313354492,-49.244998931884766,-12.21500015258789
6.650238697690242,0.2391199916601181,-1.1114200353622437,0.1371279954910278,-2.502500057220459,-50.20750045776367,-12.932499885559082
6.6705758190899065,0.2283839881420135,-1.2026759386062622,0.2837719917297363,5.985000133514404,-50.71500015258789,-7.105000019073486
6.690912940489571,0.2383880019187927,-1.3156479597091677,0.2942639887332916,6.440000057220459,-48.9474983215332,-4.865000247955322
6.711250061889235,0.297679990530014,-1.3803080320358276,0.1490840017795562,14.90999984741211,-40.58250045776367,-6.597499847412109
6.731587183288899,0.2652280032634735,-1.2941759824752808,-0.0366000011563301,27.77250099182129,-20.94750022888184,-2.1524999141693115
6.751924304688563,0.1420079916715622,-1.1824239492416382,-0.0304999984800815,35.209999084472656,-15.802499771118164,8.907500267028809
6.772261426088227,0.0156159996986389,-1.06359601020813,0.0680759996175766,40.67000198364258,-25.84749984741211,18.637500762939453
6.792598547487891,-0.090279996395111,-0.9476959705352784,0.2144759893417358,48.26499938964844,-37.97499847412109,13.19499969482422
6.8129356688875555,-0.0690519958734512,-0.9196360111236572,0.2598600089550018,55.26499938964844,-33.67000198364258,5.442500114440918
6.83327279028722,-0.0156159996986389,-0.9186599850654602,0.2786479890346527,63.47249984741211,-9.274999618530272,11.515000343322754
6.853609911686884,0.0263519994914531,-0.9267119765281676,0.293287992477417,60.40999984741211,13.737500190734863,27.19499969482422
6.873947033086548,-0.0146399997174739,-0.9113399982452391,0.2325319945812225,50.27750015258789,20.19499969482422,43.17250061035156
6.894284154486212,-0.0256199985742568,-0.8464359641075134,0.2269199937582016,41.05500030517578,16.012500762939453,48.02000045776367
6.914621275885876,-0.006343999877572,-0.8844999670982361,0.2398519963026046,23.729999542236328,13.49250030517578,45.255001068115234
6.93495839728554,-0.0178119987249374,-0.948915958404541,0.2679120004177093,17.325000762939453,10.832500457763672,42.36750030517578
6.955295518685205,-0.0092719998210668,-0.8586359620094299,0.3359879851341247,26.880001068115234,7.244999885559082,36.38249969482422
6.975632640084869,-0.0524599999189376,-0.7851920127868652,0.3352559804916382,30.625,4.357500076293945,29.364999771118164
6.995969761484533,-0.0790559947490692,-0.7722600102424622,0.3254959881305694,30.957500457763672,2.380000114440918,24.02750015258789
7.016306882884197,-0.0512399971485137,-0.757375955581665,0.354775995016098,31.0625,5.25,22.78499984741211
7.036644004283861,-0.0304999984800815,-0.7795799970626831,0.3686839938163757,26.600000381469727,13.755000114440918,24.3075008392334
7.056981125683525,-0.0627079978585243,-0.7876319885253906,0.3603879809379577,20.07250022888184,18.252500534057617,25.707500457763672
7.0773182470831895,-0.0785679966211319,-0.7612800002098083,0.374783992767334,10.727499961853027,13.93000030517578,22.46999931335449
7.097655368482854,-0.0736880004405975,-0.7793359756469727,0.3894239962100982,0.4550000131130218,8.015000343322754,19.54750061035156
7.117992489882518,-0.0680759996175766,-0.8130080103874207,0.4099199771881103,-2.345000028610229,7.349999904632568,14.734999656677246
7.138329611282182,-0.0768599957227706,-0.790071964263916,0.4260239899158478,-2.380000114440918,10.237500190734863,8.4350004196167
7.158666732681846,-0.0573399998247623,-0.8003199696540833,0.4367599785327911,-5.267499923706055,9.975000381469728,1.784999966621399
7.17900385408151,-0.0229359995573759,-0.8203279972076416,0.4243159890174866,-7.752500057220459,9.1875,-3.447499990463257
7.199340975481174,-0.0265959985554218,-0.8566839694976807,0.4094319939613342,-9.3100004196167,10.220000267028809,-6.527500152587891
7.2196780968808385,-0.0351359993219375,-0.9591639637947084,0.4867799878120422,-12.109999656677246,10.885000228881836,-5.215000152587891
7.240015218280503,-0.0024399999529123,-1.0301679372787476,0.5328959822654724,-11.987500190734863,16.170000076293945,-1.5924999713897705
7.260352339680167,-0.0090279998257756,-1.0328519344329834,0.5302119851112366,-4.304999828338623,25.707500457763672,3.202500104904175
7.280689461079831,-0.0326960012316703,-0.9911279678344728,0.5197200179100037,1.5225000381469729,31.342500686645508,7.682499885559082
7.301026582479495,-0.0441639982163906,-0.9523319602012634,0.5397279858589172,7.122499942779541,32.182498931884766,6.579999923706055
7.321363703879159,-0.0678320005536079,-0.9049959778785706,0.5890159606933594,13.0024995803833,33.35499954223633,1.4175000190734863
7.341700825278823,-0.1280999928712844,-0.9711199998855592,0.6175639629364014,10.97249984741211,32.182498931884766,-4.53249979019165
7.3620379466784875,-0.1459119915962219,-1.1277679204940796,0.6251279711723328,4.357500076293945,32.35750198364258,-3.5174999237060547
7.382375068078152,-0.2115480005741119,-1.2253680229187012,0.5765720009803772,1.715000033378601,34.212501525878906,6.212500095367432
7.402712189477816,-0.2483920007944107,-1.185107946395874,0.5202080011367798,2.047499895095825,26.54750061035156,17.552499771118164
7.42304931087748,-0.3128080070018768,-1.066767930984497,0.4191919863224029,5.740000247955322,11.970000267028809,17.045000076293945
7.443386432277144,-0.3684400022029876,-0.9450119733810424,0.4455440044403076,14.857500076293944,-4.269999980926514,-0.1225000023841857
7.463723553676808,-0.2781600058078766,-0.8649799823760986,0.4096759855747223,24.184999465942383,-14.84000015258789,-25.40999984741211
7.484060675076472,-0.1112639978528022,-0.87254399061203,0.2271640002727508,21.80500030517578,-28.489999771118164,-49.595001220703125
7.504397796476137,-0.0139079997316002,-0.909875988960266,0.0854000002145767,16.887500762939453,-29.067501068115234,-57.29500198364258
7.524734917875801,0.1298079937696457,-0.9694119691848756,0.171775996685028,-2.134999990463257,-21.122499465942383,-39.182498931884766
7.545072039275465,-0.0241560004651546,-1.001863956451416,0.1320039927959442,-17.71000099182129,-25.07749938964844,-20.177499771118164
7.565409160675129,-0.0380639992654323,-0.9520879983901978,0.2337519973516464,5.670000076293945,-46.35750198364258,-31.727500915527344
7.585746282074793,-0.1046760007739067,-1.0028399229049685,0.2603479921817779,9.677499771118164,-56.0,-42.94499969482422
7.606083403474457,0.1361519992351532,-0.7832399606704712,0.4533520042896271,27.982500076293945,-68.73999786376953,-63.560001373291016
7.6264205248741215,0.0334279984235763,-0.8137399554252625,0.3242760002613067,-12.074999809265137,-40.67000198364258,-41.03749847412109
7.646757646273786,0.0653920024633407,-0.8620519638061523,0.2498559951782226,-27.649999618530277,-36.435001373291016,-39.40999984741211
7.66709476767345,0.1595759987831115,-0.8788880109786987,0.3118319809436798,-29.837499618530277,-44.92250061035156,-41.1775016784668
7.687431889073114,0.1932480037212371,-0.80349200963974,0.2925559878349304,-36.64500045776367,-43.959999084472656,-39.00749969482422
7.707769010472778,0.2130119949579239,-0.7705519795417786,0.2459519952535629,-45.255001068115234,-37.93999862670898,-32.95249938964844
7.728106131872442,0.236191987991333,-0.696619987487793,0.224480003118515,-50.470001220703125,-36.13750076293945,-25.40999984741211
7.748443253272106,0.2603479921817779,-0.6963759660720825,0.2696200013160705,-63.630001068115234,-32.20000076293945,-17.27250099182129
7.7687803746717705,0.2354599982500076,-0.7603039741516113,0.2698639929294586,-72.04750061035156,-26.98500061035156,-7.980000019073486
7.789117496071435,0.1973959952592849,-0.7893399596214294,0.2581520080566406,-72.32749938964844,-23.502500534057617,-0.612500011920929
7.809454617471099,0.1908079981803894,-0.8469240069389343,0.2220399975776672,-73.09750366210938,-25.042499542236328,6.125
7.829791738870763,0.1981279999017715,-0.7988559603691101,0.1442039906978607,-59.185001373291016,-22.76749992370605,14.787500381469728
7.850128860270427,0.201787993311882,-0.8454599976539612,0.183243989944458,-51.79999923706055,-21.13999938964844,23.799999237060547
7.870465981670091,0.2044719904661178,-0.9110959768295288,0.2171600013971328,-45.90250015258789,-22.75,32.51499938964844
7.890803103069755,0.2176479995250702,-1.0174800157546997,0.2037400007247924,-39.584999084472656,-23.747499465942383,37.275001525878906
7.91114022446942,0.2225279957056045,-1.130452036857605,0.1983719915151596,-31.045000076293945,-20.895000457763672,34.42250061035156
7.931477345869084,0.2152079939842224,-1.1385040283203125,0.2554679811000824,-22.81999969482422,-15.960000038146973,24.674999237060547
7.951814467268748,0.2317999899387359,-1.1550959348678589,0.3030479848384857,-21.315000534057617,-15.452500343322754,11.147500038146973
7.972151588668412,0.2930440008640289,-1.1594879627227783,0.2784039974212646,-18.549999237060547,-19.98500061035156,-6.335000038146973
7.992488710068076,0.3147599995136261,-1.1677839756011963,0.2271640002727508,-11.2524995803833,-24.552499771118164,-18.07749938964844
8.01282583146774,0.3245199918746948,-1.2221959829330444,0.1481079906225204,-0.1749999970197677,-22.69750022888184,-21.6825008392334
8.033162952867405,0.3459919989109039,-1.3739639520645142,0.0710039958357811,12.949999809265137,-16.030000686645508,-23.274999618530277
8.05350007426707,0.2369239926338195,-1.4786399602890017,0.2835280001163482,22.049999237060547,-17.780000686645508,-31.95499992370605
8.073837195666735,0.2286279946565628,-1.488155961036682,0.3755159974098205,22.68000030517578,-37.380001068115234,-48.6150016784668
8.0941743170664,0.2854799926280975,-1.2617239952087402,0.0746639966964721,42.57749938964844,-37.6775016784668,-52.92000198364258
8.114511438466065,0.285968005657196,-1.0301679372787476,-0.2222839891910553,60.07749938964844,-15.399999618530272,-33.3025016784668
8.13484855986573,0.2793799936771393,-0.9132919907569884,-0.1503039896488189,73.20249938964844,-15.8725004196167,-11.00749969482422
8.155185681265396,0.2078879922628402,-0.8295999765396118,-0.1295640021562576,79.37999725341797,-31.325000762939453,10.114999771118164
8.17552280266506,-0.0988200008869171,-0.8981639742851257,0.028303999453783,72.25749969482422,-25.690000534057617,17.377500534057617
8.195859924064726,-0.1964199990034103,-1.071892023086548,0.2132560014724731,56.77000045776367,-10.97249984741211,-1.8025000095367432
8.21619704546439,0.0287919994443655,-1.173884034156799,0.3318399786949157,69.00250244140625,-0.8050000071525574,-9.642499923706056
8.236534166864056,0.1390800029039383,-1.145823955535889,0.260591983795166,99.68000030517578,22.38249969482422,4.375
8.25687128826372,0.1263919919729232,-0.9079239964485168,0.1725080013275146,113.27750396728516,35.57749938964844,28.979999542236328
8.277208409663386,0.1590880006551742,-0.7390759587287903,0.1556719988584518,93.3625030517578,34.720001220703125,40.810001373291016
8.29754553106305,0.1251720041036605,-0.798367977142334,0.1583559960126876,57.85499954223633,34.70249938964844,46.375
8.317882652462716,0.0661239996552467,-0.7908039689064026,0.2598600089550018,41.9474983215332,26.670000076293945,37.65999984741211
8.338219773862381,0.0485559999942779,-0.8515599966049194,0.3825919926166534,27.457500457763672,18.76000022888184,30.13500022888184
8.358556895262046,0.0053679998964071,-0.7978799939155579,0.3947919905185699,30.04750061035156,19.512500762939453,31.045000076293945
8.378894016661711,-0.05197199806571,-0.669048011302948,0.4062599837779999,33.005001068115234,21.94499969482422,36.18999862670898
8.399231138061376,-0.0805199965834617,-0.611952006816864,0.4182159900665283,18.934999465942383,24.20249938964844,44.65999984741211
8.419568259461041,-0.0617319978773593,-0.6871039867401123,0.4008919894695282,-3.762500047683716,22.08500099182129,50.17250061035156
8.439905380860706,-0.0214719995856285,-0.7229719758033752,0.363315999507904,-25.497499465942383,11.024999618530272,44.397499084472656
8.460242502260371,-0.0161039996892213,-0.7249239683151245,0.4038199782371521,-27.457500457763672,7.157500267028809,35.209999084472656
8.480579623660036,-0.0100039998069405,-0.7112599611282349,0.4484719932079315,-27.52750015258789,7.087500095367432,24.149999618530277
8.500916745059701,0.0053679998964071,-0.713699996471405,0.4516440033912658,-27.825000762939453,9.362500190734863,13.702500343322754
8.521253866459366,0.0407480001449584,-0.7344399690628052,0.4157759845256805,-29.802499771118164,10.6225004196167,5.127500057220459
8.541590987859031,0.047335997223854,-0.8515599966049194,0.3572160005569458,-34.38750076293945,9.642499923706056,-1.399999976158142
8.561928109258696,0.0146399997174739,-1.0072319507598877,0.3777119815349579,-33.162498474121094,10.1850004196167,-6.037499904632568
8.582265230658361,0.0002439999952912,-1.1472879648208618,0.480679988861084,-23.92250061035156,13.737500190734863,-5.84499979019165
8.602602352058026,0.0200079996138811,-1.1919399499893188,0.5280159711837769,-12.914999961853027,19.127500534057617,5.110000133514404
8.622939473457691,0.0053679998964071,-1.0491999387741089,0.5004439949989319,-1.8899999856948853,23.69499969482422,16.572500228881836
8.643276594857356,-0.037331998348236,-0.9406200051307678,0.5226479768753052,5.442500114440918,25.58500099182129,14.542500495910645
8.663613716257021,-0.1088239997625351,-0.9408639669418336,0.6121959686279297,9.922499656677246,25.77750015258789,2.782500028610229
8.683950837656687,-0.1578679978847503,-1.093851923942566,0.659775972366333,9.449999809265137,25.58500099182129,-9.397500038146973
8.704287959056352,-0.1517679989337921,-1.3505399227142334,0.6368399858474731,11.392499923706056,31.0625,-10.220000267028809
8.724625080456017,-0.1444479972124099,-1.5045039653778076,0.5426560044288635,19.31999969482422,34.05500030517578,0.5425000190734863
8.744962201855682,-0.0980879962444305,-1.2751439809799194,0.3996720016002655,31.482500076293945,23.450000762939453,10.220000267028809
8.765299323255347,-0.2093520015478134,-0.9679479598999025,0.2989000082015991,35.0525016784668,10.762499809265137,5.267499923706055
8.785636444655012,-0.2486359924077987,-0.7759199738502502,0.2879199981689453,32.025001525878906,9.642499923706056,-13.475000381469728
8.805973566054677,-0.2291159927845001,-0.6971079707145691,0.2200879901647567,29.52250099182129,12.774999618530272,-38.97249984741211
8.826310687454342,-0.0439199991524219,-0.7559120059013367,0.1112639978528022,19.4424991607666,6.369999885559082,-53.91749954223633
8.846647808854007,0.0695400014519691,-0.9691680073738098,0.0653920024633407,7.595000267028809,12.039999961853027,-46.74250030517578
8.866984930253672,0.0395279973745346,-1.1016600131988523,0.1202920004725456,0.8400000333786011,1.6974999904632568,-26.792499542236328
8.887322051653337,-0.1022359952330589,-1.070915937423706,0.2230159938335418,2.257499933242798,-26.145000457763672,-21.0
8.907659173053002,-0.0634399950504303,-0.9803919792175292,0.3606320023536682,0.5074999928474426,-52.20249938964844,-29.03249931335449
8.927996294452667,0.0034159999340772,-0.9672159552574158,0.3733199834823608,-4.235000133514404,-58.13500213623047,-37.415000915527344
8.948333415852332,0.0248879995197057,-0.9086560010910034,0.3037799894809723,-0.962499976158142,-50.88999938964844,-42.47249984741211
8.968670537251997,0.0568519979715347,-0.8586359620094299,0.2930440008640289,-1.9075000286102293,-44.380001068115234,-38.48250198364258
8.989007658651662,0.1139479950070381,-0.8496080040931702,0.30621999502182,-7.315000057220459,-47.11000061035156,-31.342500686645508
9.009344780051327,0.1922719925642013,-0.8047119975090027,0.3120760023593902,-9.9399995803833,-52.0099983215332,-25.059999465942383
9.029681901450992,0.253028005361557,-0.7593280076980591,0.269131988286972,-16.8700008392334,-53.602500915527344,-18.655000686645508
9.050019022850657,0.2864559888839721,-0.7532280087471008,0.2237479984760284,-39.25249862670898,-49.560001373291016,-3.9375
9.070356144250322,0.2437559962272644,-0.8049559593200684,0.2537599802017212,-45.90250015258789,-43.102500915527344,3.184999942779541
9.090693265649987,0.1851959973573684,-0.8386279940605164,0.273279994726181,-46.095001220703125,-38.8849983215332,10.307499885559082
9.111030387049652,0.1761679947376251,-0.8361879587173462,0.2913359999656677,-41.807498931884766,-36.540000915527344,17.9375
9.131367508449317,0.1910519897937774,-0.8449719548225403,0.2735239863395691,-35.0,-33.967498779296875,25.462499618530277
9.151704629848982,0.20032399892807,-0.795195996761322,0.2698639929294586,-23.99250030517578,-30.32749938964844,33.18000030517578
9.172041751248647,0.1751919984817505,-0.8271600008010864,0.2864559888839721,-19.61750030517578,-27.15999984741211,42.087501525878906
9.192378872648312,0.1661639958620071,-0.9391559958457948,0.3359879851341247,-19.040000915527344,-23.677499771118164,47.35499954223633
9.212715994047977,0.1654319912195205,-1.070915937423706,0.3437959849834442,-16.170000076293945,-18.987499237060547,45.709999084472656
9.233053115447643,0.1664080023765564,-1.089460015296936,0.3281799852848053,-6.300000190734863,-15.329999923706056,34.404998779296875
9.253390236847308,0.1305399984121322,-1.032364010810852,0.3071959912776947,-0.5249999761581421,-15.119999885559082,21.50749969482422
9.273727358246973,0.1036999970674514,-0.9882000088691713,0.2540040016174316,-6.650000095367432,-20.59749984741211,13.457500457763672
9.294064479646638,0.1424959897994995,-0.9689239859580994,0.2725479900836944,-17.989999771118164,-27.982500076293945,9.800000190734863
9.314401601046303,0.1856839954853058,-0.949891984462738,0.3337920010089874,-24.86750030517578,-32.35750198364258,7.244999885559082
9.334738722445968,0.1820240020751953,-0.962336003780365,0.367464005947113,-23.8174991607666,-38.67499923706055,3.237499952316284
9.355075843845633,0.1605519950389862,-1.0111359357833862,0.3550199866294861,-14.087499618530272,-44.69499969482422,4.09499979019165
9.375412965245298,0.1481079906225204,-1.0033279657363892,0.3567279875278473,0.0350000001490116,-47.810001373291016,8.680000305175781
9.395750086644963,0.1661639958620071,-1.0455399751663208,0.2937760055065155,3.569999933242798,-53.182498931884766,15.71500015258789
9.416087208044628,0.1690919995307922,-1.1790080070495603,0.1610399931669235,1.8025000095367432,-61.915000915527344,19.8799991607666
9.436424329444293,0.1822679936885833,-1.3171119689941406,0.1505479961633682,1.5225000381469729,-68.96749877929688,10.482500076293944
9.456761450843958,0.2042279988527298,-1.4256919622421265,0.1927599906921386,3.3600001335144043,-65.7125015258789,-13.912500381469728
9.477098572243623,0.065880000591278,-1.222684025764465,0.0973559990525245,17.482500076293945,-54.35499954223633,-29.75
9.497435693643288,-0.0007319999858736,-0.9303719997406006,-0.0639280006289482,25.53249931335449,-46.619998931884766,-25.690000534057617
9.517772815042953,-0.0097599998116493,-0.8666880130767822,-0.0119559997692704,16.239999771118164,-55.1775016784668,-1.924999952316284
9.538109936442618,-0.0278159994632005,-0.9171959757804872,0.0819839984178543,12.18000030517578,-69.10749816894531,23.170000076293945
9.558447057842283,-0.1595759987831115,-1.0540800094604492,0.1503039896488189,7.507500171661377,-67.12999725341797,32.567501068115234
9.578784179241948,-0.2359479963779449,-1.2221959829330444,0.196175992488861,3.237499952316284,-65.67749786376953,26.26749992370605
9.599121300641613,-0.1888559907674789,-1.1619279384613037,0.1205359995365142,18.655000686645508,-65.46749877929688,18.287500381469727
9.619458422041278,-0.1134599968791008,-1.0379760265350342,0.0597799979150295,32.3224983215332,-63.560001373291016,20.790000915527344
9.639795543440943,-0.0580720007419586,-0.9611159563064576,0.0524599999189376,33.35499954223633,-64.8375015258789,27.26499938964844
9.660132664840608,-0.0353799983859062,-0.9821000099182128,0.0361119993031024,21.332500457763672,-64.6449966430664,35.787498474121094
9.680469786240273,-0.075883999466896,-1.0040600299835205,0.1000399962067604,16.292499542236328,-67.39250183105469,37.52000045776367
9.700806907639938,-0.1256600022315979,-1.0731120109558103,0.1751919984817505,10.5,-74.49749755859375,38.290000915527344
9.721144029039603,-0.148839995265007,-1.093608021736145,0.2132560014724731,12.967499732971191,-81.21749877929688,35.90999984741211
9.741481150439268,-0.1337119936943054,-1.0545679330825806,0.2339959889650344,16.8700008392334,-83.0199966430664,33.6349983215332
9.761818271838933,-0.0675880014896392,-1.0001559257507324,0.2195999920368194,18.112499237060547,-80.70999908447266,32.900001525878906
9.782155393238599,0.0295239984989166,-0.9374479651451112,0.2039839923381805,17.622499465942383,-75.72250366210938,33.75749969482422
9.802492514638264,0.0624639987945556,-0.9108519554138184,0.1930039972066879,13.93000030517578,-69.63249969482422,35.0525016784668
9.822829636037929,0.0736880004405975,-0.8801079988479614,0.1947119981050491,13.125,-65.41500091552734,33.529998779296875
9.843166757437594,0.0895479992032051,-0.7922679781913757,0.1768999993801117,16.83500099182129,-60.65499877929688,30.100000381469727
9.863503878837259,0.0783239975571632,-0.7027199864387512,0.1712879985570907,19.38999938964844,-56.40250015258789,26.75749969482422
9.883841000236924,0.0461159981787204,-0.6544079780578613,0.1900759935379028,15.032500267028809,-53.51499938964844,23.57250022888184
9.904178121636589,0.0265959985554218,-0.721996009349823,0.2144759893417358,4.235000133514404,-51.02999877929688,20.737499237060547
9.924515243036254,0.0514839999377727,-0.8474119901657104,0.2037400007247924,-5.302500247955322,-44.95750045776367,18.287500381469727
9.944852364435919,0.0914999991655349,-0.9830759763717652,0.1700679957866668,-6.125,-32.8650016784668,16.22249984741211
9.965189485835584,0.0273279994726181,-1.0762839317321775,0.1761679947376251,6.335000038146973,-22.5575008392334,14.105000495910645
9.985526607235249,-0.0434319972991943,-1.0296800136566162,0.2566879987716675,25.217500686645508,-23.520000457763672,13.2475004196167
10.005863728634914,-0.1097999960184097,-0.9545279741287231,0.3486759960651397,33.7400016784668,-26.61750030517578,12.845000267028809
10.026200850034579,-0.1681160032749176,-0.9520879983901978,0.4082120060920715,27.26499938964844,-27.440000534057617,12.022500038146973
10.046537971434244,-0.2159399986267089,-0.9757559895515442,0.3850319981575012,13.824999809265137,-26.21500015258789,14.210000038146973
10.066875092833909,-0.1954440027475357,-1.038219928741455,0.3096359968185425,-1.5399999618530271,-26.4950008392334,22.34749984741211
10.087212214233574,-0.1359079927206039,-1.0211399793624878,0.2740119993686676,-6.002500057220459,-29.732500076293945,35.647499084472656
10.107549335633239,-0.1327359974384308,-0.9635559916496276,0.2281399965286255,-8.8725004196167,-31.97249984741211,50.942501068115234
10.127886457032904,-0.1869039982557296,-0.9745360016822816,0.2083759903907776,-16.99250030517578,-36.942501068115234,58.53749847412109
10.14822357843257,-0.2037400007247924,-1.0228480100631714,0.2666919827461242,-20.7549991607666,-48.282501220703125,53.95249938964844
10.168560699832234,-0.1827559918165207,-1.048467993736267,0.3533119857311249,-15.417500495910645,-60.165000915527344,44.380001068115234
10.1888978212319,-0.1493279933929443,-1.0321199893951416,0.3896679878234863,-5.792500019073486,-68.04000091552734,35.01750183105469
10.209234942631564,-0.1141919940710067,-0.966484010219574,0.3755159974098205,2.0299999713897705,-72.80000305175781,30.170000076293945
10.22957206403123,-0.0749079957604408,-0.9067040085792542,0.3762480020523071,3.202500104904175,-76.51000213623047,30.887500762939453
10.249909185430894,-0.0670999959111213,-0.9020679593086244,0.3818599879741668,-2.450000047683716,-78.24250030517578,33.54750061035156
10.27024630683056,-0.0629519969224929,-0.9186599850654602,0.3989399969577789,-5.809999942779541,-82.73999786376953,29.96000099182129
10.290583428230224,-0.0627079978585243,-0.8722999691963196,0.3852759897708893,-3.150000095367432,-83.0374984741211,26.774999618530277
10.31092054962989,-0.0880839973688125,-0.8281359672546387,0.3598999977111816,-3.430000066757202,-81.11250305175781,24.920000076293945
10.331257671029555,-0.0975999981164932,-0.8069080114364624,0.3445279896259308,-7.28000020980835,-80.30750274658203,23.712499618530277
10.35159479242922,-0.0814960002899169,-0.815447986125946,0.3474559783935547,-13.282500267028809,-79.59000396728516,21.979999542236328
10.371931913828885,-0.0619760006666183,-0.8566839694976807,0.3691720068454742,-18.270000457763672,-77.66500091552734,18.864999771118164
10.39226903522855,-0.0531919971108436,-0.9023119807243348,0.3925960063934326,-18.40999984741211,-75.94999694824219,13.824999809265137
10.412606156628215,-0.0507519990205764,-0.9491599798202516,0.399427980184555,-14.734999656677246,-73.6050033569336,8.960000038146973
10.43294327802788,-0.0595359988510608,-1.012355923652649,0.3799079954624176,-9.5024995803833,-68.91500091552734,6.702499866485596
10.453280399427545,-0.033671997487545,-1.1455799341201782,0.3640480041503906,-5.179999828338623,-62.73749923706055,9.239999771118164
10.47361752082721,0.0185439996421337,-1.2568439245224,0.3691720068454742,2.047499895095825,-54.932498931884766,18.14750099182129
10.493954642226875,-0.0029279999434947,-1.140455961227417,0.3972319960594177,16.012500762939453,-46.35750198364258,28.962499618530277
10.51429176362654,-0.0497759990394115,-0.9357399940490724,0.427731990814209,24.95499992370605,-40.337501525878906,31.325000762939453
10.534628885026205,-0.0685639977455139,-0.7973920106887817,0.4465200006961822,22.854999542236328,-36.032501220703125,23.170000076293945
10.55496600642587,-0.0814960002899169,-0.7563999891281128,0.4238280057907104,15.119999885559082,-30.83500099182129,12.092499732971191
10.575303127825535,-0.1485960036516189,-0.8047119975090027,0.3781999945640564,6.510000228881836,-28.350000381469727,1.3125
10.5956402492252,-0.1790959984064102,-0.9716079831123352,0.3511160016059875,-1.0499999523162842,-33.42499923706055,-1.1200000047683716
10.615977370624865,-0.1503039896488189,-1.139967918395996,0.3757599890232086,1.4524999856948853,-35.875,6.650000095367432
10.63631449202453,-0.130295991897583,-1.0867760181427002,0.3594119846820831,17.377500534057617,-35.40250015258789,12.897500038146973
10.656651613424195,-0.1105320006608963,-0.9864919781684875,0.3111000061035156,26.880001068115234,-40.72249984741211,9.100000381469728
10.67698873482386,-0.1024799942970275,-0.9372040033340454,0.2696200013160705,21.45499992370605,-48.58000183105469,3.150000095367432
10.697325856223525,-0.1090679988265037,-0.9677039980888368,0.2520520091056824,8.837499618530273,-56.27999877929688,-2.0999999046325684
10.71766297762319,-0.0785679966211319,-0.9630680084228516,0.2415599972009658,2.765000104904175,-62.352500915527344,-7.244999885559082
10.738000099022855,0.0100039998069405,-0.9630680084228516,0.196175992488861,1.3300000429153442,-65.85250091552734,-10.552499771118164
10.75833722042252,0.0822279974818229,-0.995519995689392,0.130295991897583,1.680000066757202,-67.55000305175781,-13.020000457763672
10.778674341822185,0.0963799953460693,-1.0301679372787476,0.1322479993104934,4.269999980926514,-70.13999938964844,-15.329999923706056
10.79901146322185,0.1041879951953888,-1.0579839944839478,0.1864160001277923,6.335000038146973,-75.47750091552734,-17.27250099182129
10.819348584621515,0.1137039959430694,-1.0440759658813477,0.218868002295494,8.645000457763672,-79.50250244140625,-20.7549991607666
10.83968570602118,0.1576239913702011,-1.013819932937622,0.2374119907617569,11.427499771118164,-84.57749938964844,-24.13249969482422
10.860022827420845,0.2052039951086044,-0.9054839611053468,0.2371679991483688,13.982500076293944,-85.06749725341797,-24.07999992370605
10.88035994882051,0.2269199937582016,-0.806663990020752,0.2278959900140762,1.0149999856948853,-77.92749786376953,-16.572500228881836
10.900697070220176,0.2120359987020492,-0.8071519732475281,0.2235039919614792,-8.137499809265137,-77.17500305175781,-7.192500114440918
10.92103419161984,0.1890999972820282,-0.8188639879226685,0.2481479942798614,-17.727500915527344,-76.2125015258789,2.992500066757202
10.941371313019506,0.1690919995307922,-0.8722999691963196,0.273279994726181,-26.145000457763672,-74.76000213623047,11.427499771118164
10.96170843441917,0.1561599969863891,-0.9267119765281676,0.2823079824447632,-27.93000030517578,-73.1675033569336,15.295000076293944
10.982045555818836,0.1483519971370697,-0.952575981616974,0.2903600037097931,-24.149999618530277,-71.76750183105469,15.8725004196167
11.0023826772185,0.1395680010318756,-0.9720959663391112,0.3035359978675842,-18.287500381469727,-71.12000274658203,14.9975004196167
11.022719798618166,0.1439599990844726,-0.9894199967384338,0.3164680004119873,-10.727499961853027,-71.54000091552734,11.88249969482422
11.04305692001783,0.1622599959373474,-0.8637599945068359,0.3250080049037933,-2.3975000381469727,-70.13999938964844,8.137499809265137
11.063394041417496,0.1915400028228759,-0.8378959894180298,0.3184199929237366,-8.890000343322754,-69.93000030517578,12.984999656677246
11.08373116281716,0.2227720022201538,-0.8256959915161133,0.2910920083522796,-16.292499542236328,-70.19249725341797,19.809999465942383
11.104068284216826,0.2483920007944107,-0.8252080082893372,0.2671799957752228,-21.40250015258789,-70.01750183105469,26.915000915527344
11.124405405616491,0.2640079855918884,-0.8449719548225403,0.2586399912834167,-24.13249969482422,-66.46500396728516,33.6875
11.144742527016156,0.2640079855918884,-0.8871839642524719,0.2561999857425689,-24.587499618530277,-59.44750213623047,38.20249938964844
11.165079648415821,0.2481479942798614,-0.9232959747314452,0.2588839828968048,-22.61000061035156,-52.43000030517578,38.744998931884766
11.185416769815486,0.2191119939088821,-0.9589200019836426,0.2596159875392914,-21.280000686645508,-46.970001220703125,36.18999862670898
11.205753891215151,0.167383998632431,-1.0011320114135742,0.2581520080566406,-21.59499931335449,-44.92250061035156,30.030000686645508
11.226091012614816,0.1307840049266815,-1.0355359315872192,0.2840159833431244,-22.049999237060547,-45.67499923706055,21.82250022888184
11.246428134014481,0.1259039938449859,-1.0374879837036133,0.3157359957695007,-21.15749931335449,-46.147499084472656,12.425000190734863
11.266765255414146,0.1476199924945831,-1.013819932937622,0.3301320075988769,-18.34000015258789,-46.462501525878906,5.932499885559082
11.287102376813811,0.1705559939146042,-1.0025960206985474,0.3084160089492798,-13.19499969482422,-47.16249847412109,4.829999923706055
11.307439498213476,0.1822679936885833,-1.0504199266433716,0.2727919816970825,-8.522500038146973,-48.98250198364258,8.260000228881836
11.327776619613141,0.1988599896430969,-1.0918999910354614,0.2869440019130707,-3.5,-50.20750045776367,9.55500030517578
11.348113741012806,0.2308239936828613,-1.1414319276809692,0.2496119886636734,-5.827499866485596,-50.01499938964844,7.227499961853027
11.368450862412471,0.2544919848442077,-1.2329319715499878,0.2330199927091598,-9.5024995803833,-49.29750061035156,-1.3125
11.388787983812136,0.2644959986209869,-1.3063759803771973,0.230335995554924,-7.787499904632568,-49.244998931884766,-13.404999732971191
11.409125105211801,0.2837719917297363,-1.3283360004425049,0.1439599990844726,4.934999942779541,-46.30500030517578,-24.727500915527344
11.429462226611466,0.2969479858875274,-1.1550959348678589,0.0326960012316703,30.76499938964844,-35.89250183105469,-25.287500381469727
11.449799348011132,0.2683999836444855,-1.0135760307312012,0.0680759996175766,49.54249954223633,-29.90749931335449,-12.897500038146973
11.470136469410797,0.2500999867916107,-0.96453195810318,0.0936959981918335,63.38500213623047,-35.50749969482422,2.345000028610229
11.490473590810462,-0.0914999991655349,-0.9528200030326844,0.0749079957604408,74.14749908447266,-45.185001373291016,26.477500915527344
11.510810712210127,-0.1878799945116043,-0.9071919918060304,0.1456679999828338,64.78500366210938,-46.44499969482422,21.0
11.531147833609792,-0.1751919984817505,-0.8225240111351013,0.1973959952592849,52.220001220703125,-42.45500183105469,13.6850004196167
11.551484955009457,-0.0370879992842674,-0.8669319748878479,0.2393639981746673,38.36000061035156,-36.505001068115234,18.497499465942383
11.571822076409122,0.1219999939203262,-0.9230519533157348,0.2525399923324585,33.18000030517578,-24.65749931335449,28.4375
11.592159197808787,0.196175992488861,-1.0660359859466553,0.1920280009508133,32.095001220703125,-12.477499961853027,37.32749938964844
11.612496319208452,0.2054480016231537,-1.0299240350723269,0.2193560004234314,39.30500030517578,-12.477499961853027,36.959999084472656
11.632833440608117,0.1708000004291534,-1.054811954498291,0.2813319861888885,38.692501068115234,-11.164999961853027,32.567501068115234
11.653170562007782,0.0861319974064827,-0.9938119649887084,0.334524005651474,47.42499923706055,-3.920000076293945,25.51499938964844
11.673507683407447,0.0173240005970001,-0.8991400003433228,0.3611199855804443,50.81999969482422,1.4350000619888306,19.075000762939453
11.693844804807112,-0.0207399986684322,-0.8086159825325012,0.3628279864788055,47.21500015258789,7.139999866485596,16.8174991607666
11.714181926206777,-0.0339160002768039,-0.6968640089035034,0.3491639792919159,38.727500915527344,10.640000343322754,18.917499542236328
11.734519047606442,-0.0317199975252151,-0.6548959612846375,0.3428199887275696,19.424999237060547,12.582500457763672,27.07250022888184
11.754856169006107,-0.0082959998399019,-0.7093079686164856,0.3523359894752502,-2.012500047683716,16.082500457763672,34.96500015258789
11.775193290405772,0.0080519998446106,-0.7876319885253906,0.3428199887275696,-14.630000114440918,21.84000015258789,35.717498779296875
11.795530411805437,0.0168359987437725,-0.8864519596099854,0.3240320086479187,-16.747499465942383,23.362499237060547,28.94499969482422
11.815867533205102,0.009515999816358,-0.8705919981002808,0.3428199887275696,-8.680000305175781,23.309999465942383,19.02250099182129
11.836204654604767,0.0029279999434947,-0.8252080082893372,0.3908880054950714,-4.829999923706055,24.604999542236328,9.274999618530272
11.856541776004432,0.0178119987249374,-0.7883639931678772,0.4199239909648895,-6.597499847412109,26.127500534057617,0.6825000047683716
11.876878897404097,0.0573399998247623,-0.7795799970626831,0.4177280068397522,-12.092499732971191,29.732500076293945,-4.65500020980835
11.897216018803762,0.0841799974441528,-0.8283799886703491,0.3935720026493072,-20.107500076293945,34.49250030517578,-7.664999961853027
11.917553140203427,0.1115079969167709,-0.9159759879112244,0.3952800035476684,-27.52750015258789,39.44499969482422,-7.71750020980835
11.937890261603092,0.08661999553442,-0.9884439706802368,0.4304159879684448,-28.280000686645508,43.22499847412109,-6.737500190734863
11.958227383002757,-0.0004879999905824,-1.0450519323349,0.4455440044403076,-20.037500381469727,43.994998931884766,-6.684999942779541
11.978564504402422,-0.0563639998435974,-1.0613999366760254,0.4921479821205139,-7.105000019073486,44.50249862670898,-3.849999904632568
11.998901625802088,-0.0478239990770816,-1.0230920314788818,0.4950760006904602,4.21750020980835,47.23250198364258,-2.5199999809265137
12.019238747201753,-0.0378200002014637,-0.9767319560050964,0.4555479884147644,14.227499961853027,55.86000061035156,-6.702499866485596
12.039575868601418,-0.028303999453783,-0.9279319643974304,0.4457879960536957,21.087499618530277,60.98749923706055,-13.737500190734863
12.059912990001083,0.0212280005216598,-0.9652639627456664,0.5053240060806274,21.979999542236328,65.44999694824219,-21.03499984741211
12.080250111400748,0.0417240001261234,-1.2348840236663818,0.4548159837722778,17.587499618530273,75.30249786376953,-24.02750015258789
12.100587232800413,-0.181779995560646,-1.2458640336990356,0.17323999106884,26.145000457763672,61.63500213623047,-24.86750030517578
12.120924354200078,-0.2581520080566406,-1.059448003768921,0.1842200011014938,11.952500343322754,42.227500915527344,-31.149999618530277
12.141261475599743,-0.2496119886636734,-0.9408639669418336,0.3186639845371246,-1.0674999952316284,38.9900016784668,-38.9900016784668
12.161598596999408,-0.1793399900197982,-0.9081679582595824,0.3137840032577514,-6.422500133514404,39.182498931884766,-50.994998931884766
12.181935718399073,-0.0273279994726181,-0.9120720028877258,0.2920680046081543,-8.417500495910645,44.29249954223633,-50.6974983215332
12.202272839798738,0.0954039990901947,-0.9189040064811708,0.1949559897184372,-14.47249984741211,51.397499084472656,-42.26250076293945
12.222609961198403,0.1232199966907501,-0.900115966796875,0.0578279979526996,-19.89750099182129,46.584999084472656,-36.41749954223633
12.242947082598068,0.1542080044746399,-0.818619966506958,0.0407480001449584,-21.2450008392334,39.95249938964844,-37.20500183105469
12.263284203997733,0.1827559918165207,-0.8405799865722656,0.0663679987192154,-28.50749969482422,43.29500198364258,-36.907501220703125
12.283621325397398,0.1566479951143264,-0.9342759847640992,0.085156001150608,-35.10499954223633,50.959999084472656,-31.9375
12.303958446797063,0.1056519970297813,-1.0104039907455444,0.1122400015592575,-33.21500015258789,54.915000915527344,-28.36750030517578
12.324295568196728,0.066611997783184,-1.0118680000305176,0.1249279975891113,-22.0674991607666,53.04249954223633,-29.45249938964844
12.344632689596393,0.0629519969224929,-0.9755119681358336,0.1603080034255981,-11.654999732971191,52.56999969482422,-33.7400016784668
12.364969810996058,0.0746639966964721,-0.9957639575004578,0.1593319922685623,-10.324999809265137,53.619998931884766,-35.4900016784668
12.385306932395723,0.1259039938449859,-1.053347945213318,0.1829999983310699,-11.532500267028809,51.02999877929688,-34.002498626708984
12.405644053795388,0.1890999972820282,-1.0701839923858645,0.1722639948129654,-9.15250015258789,52.9375,-31.850000381469727
12.425981175195053,0.218868002295494,-1.0438319444656372,0.140299990773201,-7.017499923706055,56.9275016784668,-29.34749984741211
12.446318296594718,0.2305800020694732,-1.0099159479141235,0.1381039917469024,-9.730000495910645,59.43000030517578,-26.915000915527344
12.466655417994383,0.2391199916601181,-1.006500005722046,0.1478639990091323,-16.22249984741211,62.26499938964844,-24.88500022888184
12.486992539394048,0.218868002295494,-1.0245559215545654,0.1495719999074936,-22.24250030517578,64.29499816894531,-24.184999465942383
12.507329660793713,0.1937360018491745,-1.034559965133667,0.1424959897994995,-25.53249931335449,65.5374984741211,-25.479999542236328
12.527666782193378,0.1944679915904998,-1.0118680000305176,0.1468880027532577,-26.0049991607666,66.91999816894531,-26.38999938964844
12.548003903593044,0.187391996383667,-0.993079960346222,0.1427399963140487,-24.920000076293945,69.40499877929688,-26.72249984741211
12.568341024992709,0.1930039972066879,-0.96697199344635,0.1317600011825561,-22.69750022888184,73.18499755859375,-26.337499618530277
12.588678146392374,0.1973959952592849,-0.93232399225235,0.1254159957170486,-20.790000915527344,76.75499725341797,-25.34000015258789
12.609015267792039,0.2047159969806671,-0.8954799771308899,0.1141919940710067,-21.06999969482422,79.22250366210938,-23.712499618530277
12.629352389191704,0.2027639895677566,-0.8820599913597107,0.1158999949693679,-22.592500686645508,80.4124984741211,-22.137500762939453
12.649689510591369,0.2105719894170761,-0.8879159688949585,0.1161440014839172,-23.83500099182129,79.48500061035156,-20.5625
12.670026631991034,0.2169159948825836,-0.9006040096282959,0.1000399962067604,-23.502500534057617,77.4375,-18.8125
12.690363753390699,0.2191119939088821,-0.9123159646987916,0.1024799942970275,-22.049999237060547,75.93250274658203,-16.83500099182129
12.710700874790364,0.2205759882926941,-0.9298839569091796,0.1090679988265037,-16.344999313354492,75.26750183105469,-10.920000076293944
12.731037996190029,0.244731992483139,-0.9189040064811708,0.1222440004348754,-11.322500228881836,75.40750122070312,-7.192500114440918
12.751375117589694,0.2449759989976883,-0.9115839600563048,0.1234639957547187,-6.947500228881836,76.10749816894531,-5.144999980926514
12.771712238989359,0.2369239926338195,-0.9232959747314452,0.1390800029039383,-2.9574999809265137,76.0199966430664,-3.3600001335144043
12.792049360389024,0.2239919900894165,-0.9354959726333618,0.1805599927902221,0.5425000190734863,74.77750396728516,-1.5399999618530271
12.812386481788689,0.2117919921875,-0.949404001235962,0.2310680001974105,2.9749999046325684,73.90250396728516,-0.6650000214576721
12.832723603188354,0.1890999972820282,-0.9750239849090576,0.2479040026664734,5.232500076293945,72.15250396728516,-0.4375
12.853060724588019,0.1661639958620071,-0.9964959621429444,0.2469279915094375,7.752500057220459,68.66999816894531,-1.5575000047683716
12.873397845987684,0.1761679947376251,-1.0025960206985474,0.2276519984006881,8.925000190734863,66.4124984741211,-2.799999952316284
12.89373496738735,0.1900759935379028,-1.0389519929885864,0.2213079929351806,5.809999942779541,64.99500274658203,-1.924999952316284
12.914072088787014,0.1988599896430969,-1.1267919540405271,0.2832840085029602,-5.110000133514404,60.970001220703125,-2.4674999713897705
12.93440921018668,0.3008520007133484,-1.2158520221710205,0.2510759830474853,-16.852500915527344,57.18999862670898,-11.9350004196167
12.954746331586344,0.4150439798831939,-1.1748600006103516,0.1088239997625351,-13.107500076293944,62.51000213623047,-29.364999771118164
12.97508345298601,0.3716119825839996,-1.0086959600448608,-0.0287919994443655,0.5774999856948853,68.3550033569336,-36.959999084472656
12.995420574385674,0.1854400038719177,-0.8613199591636658,-0.109555996954441,10.272500038146973,66.1675033569336,-28.21000099182129
13.01575769578534,-0.0956479981541633,-0.8137399554252625,-0.0387960001826286,11.6899995803833,61.337501525878906,-18.287500381469727
13.036094817185004,-0.2786479890346527,-0.9533079862594604,0.1376159936189651,6.195000171661377,56.97999954223633,-20.405000686645508
13.05643193858467,-0.224480003118515,-1.130695939064026,0.2918239831924438,10.762499809265137,59.9900016784668,-26.61750030517578
13.076769059984334,0.0080519998446106,-1.2697759866714478,0.3064639866352081,29.924999237060547,77.62999725341797,-30.957500457763672
13.097106181384,0.185928001999855,-1.2534279823303225,0.2569319903850555,52.1150016784668,98.38500213623048,-27.05500030517578
13.117443302783665,0.1771439909934997,-1.128499984741211,0.210327997803688,64.13749694824219,110.25,-21.420000076293945
13.13778042418333,0.2139879912137985,-1.1345999240875244,0.1598199903964996,61.494998931884766,115.65750122070312,-20.002500534057617
13.158117545582995,0.1312720030546188,-0.97843998670578,0.1671399921178817,63.71749877929688,123.05999755859376,-27.825000762939453
13.17845466698266,0.0226919986307621,-0.7925119996070862,0.1778759956359863,60.182498931884766,126.13999938964844,-45.86750030517578
13.198791788382325,-0.0019519999623298,-0.8486319780349731,0.1971519887447357,36.8025016784668,120.34750366210938,-50.17250061035156
13.21912890978199,0.0256199985742568,-0.871567964553833,0.285968005657196,17.482500076293945,121.69499969482422,-41.89500045776367
13.239466031181655,0.0280600003898143,-0.8893799781799316,0.3433080017566681,9.467499732971191,133.1750030517578,-34.02000045776367
13.25980315258132,-0.009515999816358,-0.9506239891052246,0.3386719822883606,4.059999942779541,147.6300048828125,-27.912500381469727
13.280140273980985,-0.0265959985554218,-0.9081679582595824,0.2637639939785003,6.912499904632568,155.82000732421875,-27.667499542236328
13.30047739538065,0.0036599999293684,-0.8330159783363342,0.2147199958562851,11.585000038146973,152.40750122070312,-32.98749923706055
13.320814516780315,0.0124439997598528,-0.8561959862709045,0.253028005361557,9.467499732971191,141.01499938964844,-41.720001220703125
13.34115163817998,0.0029279999434947,-0.9647759795188904,0.2845039963722229,4.059999942779541,135.24000549316406,-40.82749938964844
13.361488759579645,0.0143959997221827,-0.954039990901947,0.3396480083465576,3.692500114440918,136.00999450683594,-40.67000198364258
13.38182588097931,-0.0151279997080564,-0.9008479714393616,0.3496519923210144,1.1549999713897705,144.53250122070312,-38.290000915527344
13.402163002378975,-0.0590479969978332,-0.8879159688949585,0.3481879830360412,-2.9574999809265137,145.56500244140625,-36.872501373291016
13.42250012377864,-0.0978439971804618,-0.9003599882125854,0.3696599900722503,-4.724999904632568,136.00999450683594,-38.255001068115234
13.442837245178305,-0.1134599968791008,-0.8837679624557495,0.3964999914169311,-5.039999961853027,123.42749786376952,-37.45000076293945
13.46317436657797,-0.1261480003595352,-0.9345200061798096,0.4179719984531402,-9.274999618530272,110.96749877929688,-32.40999984741211
13.483511487977635,-0.1466439962387085,-0.9335439801216124,0.4191919863224029,-7.840000152587891,102.9875030517578,-29.27750015258789
13.5038486093773,-0.1276119947433471,-0.8988959789276123,0.4294399917125702,-3.255000114440918,98.94499969482422,-29.76749992370605
13.524185730776965,-0.0595359988510608,-0.8598560094833374,0.4531079828739166,0.5600000023841858,97.0374984741211,-33.65250015258789
13.54452285217663,0.0143959997221827,-0.8820599913597107,0.4550600051879883,1.4524999856948853,91.6999969482422,-36.68000030517578
13.564859973576295,0.0775920003652572,-0.8981639742851257,0.4496919810771942,5.757500171661377,86.34500122070312,-37.79999923706055
13.58519709497596,0.0861319974064827,-0.8976759910583496,0.4484719932079315,11.4975004196167,81.39250183105469,-36.38249969482422
13.605534216375625,0.06734399497509,-0.8708359599113464,0.468968003988266,16.467500686645508,75.7925033569336,-34.369998931884766
13.62587133777529,0.0195199996232986,-0.8288679718971252,0.4899519979953766,19.792499542236328,73.55249786376953,-34.5625
13.646208459174956,-0.0119559997692704,-0.8183760046958923,0.5011759996414185,18.44499969482422,72.44999694824219,-37.88750076293945
13.66654558057462,-0.0829599946737289,-0.8603439927101135,0.4516440033912658,16.922500610351562,69.5625,-42.0525016784668
13.686882701974286,-0.1373720020055771,-0.9025560021400452,0.416020005941391,19.19750022888184,67.77750396728516,-40.337501525878906
13.70721982337395,-0.0805199965834617,-0.9938119649887084,0.5070319771766663,18.14750099182129,61.75749969482422,-27.94750022888184
13.727556944773616,-0.0783239975571632,-1.1009279489517212,0.59170001745224,20.405000686645508,45.92000198364258,-18.40999984741211
13.74789406617328,-0.0897919982671737,-1.0379760265350342,0.5560759902000427,28.21000099182129,30.20499992370605,-16.69499969482422
13.768231187572946,-0.1127279996871948,-0.8437519669532776,0.4740919768810272,24.79750061035156,34.05500030517578,-23.25749969482422
13.78856830897261,-0.220331996679306,-0.7515199780464172,0.3789319992065429,11.9350004196167,46.70750045776367,-35.26250076293945
13.808905430372276,-0.1903200000524521,-0.9396439790725708,0.2769399881362915,0.2800000011920929,40.442501068115234,-55.369998931884766
13.82924255177194,0.0895479992032051,-1.1546080112457275,0.293531984090805,-8.75,33.65250015258789,-58.25749969482422
13.849579673171606,0.4440799951553345,-1.2553800344467163,0.4143120050430298,-13.859999656677246,62.09000015258789,-39.70750045776367
13.869916794571271,0.3398919999599457,-1.254159927368164,0.2432679980993271,-10.552499771118164,78.38249969482422,-33.564998626708984
13.890253915970936,0.1939799934625625,-1.179252028465271,0.2220399975776672,-9.082500457763672,48.47499847412109,-44.64250183105469
13.910591037370601,0.0822279974818229,-1.1485079526901243,0.333547979593277,-22.5049991607666,26.302499771118164,-54.75749969482422
13.930928158770266,-0.037331998348236,-1.1819360256195068,0.4023559987545013,-52.4474983215332,24.7450008392334,-62.96500015258789
13.951265280169931,-0.0351359993219375,-1.16949200630188,0.3308639824390411,-50.540000915527344,28.38500022888184,-57.907501220703125
13.971602401569596,0.0097599998116493,-1.047003984451294,0.2603479921817779,-39.39250183105469,20.49250030517578,-55.720001220703125
13.991939522969261,0.1317600011825561,-0.8640039563179016,0.185928001999855,-36.57500076293945,9.467499732971191,-58.55500030517578
14.012276644368926,0.1976400017738342,-0.69759601354599,0.1261480003595352,-47.459999084472656,7.945000171661377,-51.6775016784668
14.032613765768591,0.2374119907617569,-0.692471981048584,0.099551998078823,-68.30249786376953,10.8149995803833,-33.915000915527344
14.052950887168256,0.244731992483139,-0.7319999933242798,0.1110199987888336,-76.75499725341797,16.99250030517578,-17.27250099182129
14.073288008567921,0.1922719925642013,-0.7056480050086975,0.1271239966154098,-71.8375015258789,24.184999465942383,-7.087500095367432
14.093625129967586,0.1544519960880279,-0.6768559813499451,0.1656759977340698,-61.21500015258789,29.190000534057617,-4.042500019073486
14.113962251367251,0.1485960036516189,-0.6495279669761658,0.1847079992294311,-49.40250015258789,31.727500915527344,-4.199999809265137
14.134299372766916,0.1712879985570907,-0.6595320105552673,0.1795839965343475,-39.23500061035156,33.51250076293945,-2.6600000858306885
14.154636494166581,0.1876360028982162,-0.6485520005226135,0.1768999993801117,-32.04249954223633,33.7400016784668,1.1200000047683716
14.174973615566246,0.183243989944458,-0.6222000122070312,0.1837320029735565,-28.80500030517578,32.252498626708984,6.422500133514404
14.195310736965912,0.1803160011768341,-0.6126840114593506,0.1642120033502578,-28.174999237060547,30.04750061035156,12.022500038146973
14.215647858365577,0.2127679884433746,-0.7046719789505005,0.1322479993104934,-31.622499465942383,26.4424991607666,18.76000022888184
14.235984979765242,0.2432679980993271,-0.8449719548225403,0.1315159946680069,-32.98749923706055,25.934999465942383,25.00749969482422
14.256322101164907,0.1695799976587295,-0.9550159573554992,0.1317600011825561,-28.2450008392334,26.950000762939453,26.21500015258789
14.276659222564572,0.0185439996421337,-1.0335839986801147,0.2481479942798614,-22.34749984741211,23.48500061035156,22.1200008392334
14.296996343964237,0.061243999749422,-1.1641240119934082,0.3374519944190979,-24.95499992370605,18.707500457763672,11.462499618530272
14.317333465363902,0.1568920016288757,-1.1924279928207395,0.374783992767334,-20.667499542236328,16.69499969482422,-3.150000095367432
14.337670586763567,0.175924003124237,-1.1699799299240112,0.3762480020523071,-13.877500534057615,7.577499866485596,-10.744999885559082
14.358007708163232,0.2369239926338195,-1.177299976348877,0.2864559888839721,-7.612500190734863,-5.880000114440918,-13.107500076293944
14.378344829562897,0.3440400063991546,-1.154363989830017,0.2666919827461242,-6.720000267028809,-12.529999732971191,-9.869999885559082
14.398681950962562,0.4545719921588897,-1.2392759323120115,0.1825120002031326,-11.725000381469728,-14.0,-8.505000114440918
14.419019072362227,0.4513999819755554,-1.2490359544754028,0.2293599992990493,-10.114999771118164,-12.792500495910645,-12.337499618530272
14.439356193761892,0.4269999861717224,-1.318331956863403,0.257420003414154,-11.147500038146973,-13.142499923706056,-19.98500061035156
14.459693315161557,0.313539981842041,-1.3000320196151731,0.2044719904661178,-3.132499933242798,-14.699999809265137,-28.15749931335449
14.480030436561222,0.3567279875278473,-1.0701839923858645,0.0065879998728632,12.600000381469728,-18.44499969482422,-19.530000686645508
14.500367557960887,0.3906439840793609,-1.1023919582366943,-0.0688079968094825,18.82999992370605,-15.574999809265137,1.995000004768372
14.520704679360552,0.2325319945812225,-1.1790080070495603,-0.0700279995799064,30.1875,-6.492499828338623,5.477499961853027
14.541041800760217,-0.1451800018548965,-1.1011719703674316,-0.0314759984612464,43.15499877929688,-16.047500610351562,-8.837499618530273
14.561378922159882,-0.2481479942798614,-1.0435879230499268,-0.0012199999764561,44.65999984741211,-18.14750099182129,-12.162500381469728
14.581716043559547,-0.181779995560646,-1.087019920349121,0.0734440013766288,43.13750076293945,-11.427499771118164,-10.0625
14.602053164959212,0.0197639986872673,-1.152168035507202,0.2056919932365417,48.82500076293945,3.202500104904175,-3.692500114440918
14.622390286358877,0.1349319964647293,-1.2168279886245728,0.2598600089550018,55.26499938964844,21.1924991607666,8.960000038146973
14.642727407758542,0.1590880006551742,-1.2209759950637815,0.2398519963026046,68.07499694824219,29.24250030517578,20.107500076293945
14.663064529158207,0.1578679978847503,-1.1260600090026855,0.185928001999855,83.86000061035156,35.4900016784668,21.542499542236328
14.683401650557872,0.140299990773201,-0.9289079904556274,0.1268799901008606,87.44750213623047,48.89500045776367,16.309999465942383
14.703738771957537,0.1190719977021217,-0.785923957824707,0.090279996395111,70.59500122070312,60.68999862670898,11.602499961853027
14.724075893357202,0.1241960003972053,-0.6741719841957092,0.1395680010318756,52.90250015258789,68.42500305175781,7.4375
14.744413014756867,0.1217559948563575,-0.5680319666862488,0.2342399954795837,35.90999984741211,73.91999816894531,8.470000267028809
14.764750136156533,0.0751519948244094,-0.5748639702796936,0.2588839828968048,16.065000534057617,80.02750396728516,10.5
14.785087257556198,-0.023667998611927,-0.6173200011253357,0.2193560004234314,0.6474999785423279,86.57250213623047,14.297499656677246
14.805424378955863,-0.1227319985628128,-0.6666079759597778,0.1617719978094101,-9.9399995803833,89.84500122070312,15.364999771118164
14.825761500355528,-0.1649439930915832,-0.7317559719085693,0.1920280009508133,-16.39750099182129,85.69750213623047,9.9399995803833
14.846098621755193,-0.1320039927959442,-0.7771399617195129,0.257420003414154,-17.727500915527344,80.32499694824219,-1.4350000619888306
14.866435743154858,-0.1251720041036605,-0.8288679718971252,0.3433080017566681,-15.050000190734863,75.93250274658203,-13.772500038146973
14.886772864554523,-0.0744199976325035,-0.9393999576568604,0.4675039947032928,-13.59749984741211,68.84500122070312,-25.479999542236328
14.907109985954188,0.0126879997551441,-1.0457839965820312,0.513375997543335,-8.137499809265137,60.39250183105469,-33.7400016784668
14.927447107353853,0.0661239996552467,-1.0330959558486938,0.4433479905128479,4.619999885559082,54.23250198364258,-38.43000030517578
14.947784228753518,0.1124840006232261,-0.9171959757804872,0.334767997264862,7.052500247955322,52.32500076293945,-36.45249938964844
14.968121350153183,0.1141919940710067,-0.8608319759368896,0.2654719948768616,-5.862500190734863,59.692501068115234,-26.65250015258789
14.988458471552848,0.0649039968848228,-0.9389119744300842,0.3076840043067932,-22.225000381469727,64.8550033569336,-11.34000015258789
15.008795592952513,0.0763719975948333,-1.0213840007781982,0.4086999893188476,-27.26499938964844,63.50749969482422,-1.0149999856948853
15.029132714352178,0.1085800006985664,-1.1006839275360107,0.420412003993988,-17.53499984741211,66.63999938964844,-2.712500095367432
15.049469835751843,0.1185839995741844,-1.0596920251846311,0.3781999945640564,3.797500133514404,77.0875015258789,-13.52750015258789
15.069806957151508,0.1495719999074936,-0.8857199549674988,0.3630719780921936,17.954999923706055,88.39250183105469,-26.25
15.090144078551173,0.1385920047760009,-0.7568879723548889,0.3598999977111816,17.7450008392334,99.2249984741211,-34.66749954223633
15.110481199950838,0.056607998907566,-0.7344399690628052,0.3457480072975158,13.335000038146973,106.90750122070312,-42.73500061035156
15.130818321350503,-0.0119559997692704,-0.8217920064926147,0.3581919968128204,9.15250015258789,109.51499938964844,-47.09249877929688
15.151155442750168,-0.020983999595046,-1.511091947555542,0.2788919806480407,11.864999771118164,122.13249969482422,-39.20000076293945
15.171492564149833,-0.1022359952330589,-1.5874639749526978,0.0983319953083992,31.587499618530277,114.8874969482422,-33.18000030517578
15.191829685549498,-0.1739719957113266,-1.218291997909546,0.0973559990525245,47.98500061035156,92.4175033569336,-32.27000045776367
15.212166806949163,-0.2098399996757507,-0.7742120027542114,0.1559159904718399,39.060001373291016,93.60749816894533,-31.0625
15.232503928348828,-0.2088640034198761,-0.5450959801673889,0.1739719957113266,16.012500762939453,103.63500213623048,-36.994998931884766
15.252841049748493,-0.2071560025215149,-0.7268759608268738,0.1566479951143264,-12.862500190734863,101.56999969482422,-47.442501068115234
15.273178171148158,-0.0497759990394115,-1.1475319862365725,0.2027639895677566,-32.970001220703125,95.16500091552734,-46.72499847412109
15.293515292547823,0.1385920047760009,-1.3986079692840576,0.2117919921875,-28.6825008392334,99.34750366210938,-38.09749984741211
15.313852413947489,0.2078879922628402,-1.357128024101257,0.0405040010809898,-7.490000247955322,90.98249816894533,-38.43000030517578
15.334189535347154,0.2027639895677566,-1.1270359754562378,0.0121999997645616,-0.4375,77.94499969482422,-42.75249862670898
15.354526656746819,0.114436000585556,-0.977952003479004,0.0629519969224929,-17.727500915527344,82.70500183105469,-44.834999084472656
15.374863778146484,0.0424560010433197,-0.9977160096168518,0.0932080000638961,-37.99250030517578,92.45249938964844,-48.82500076293945
15.395200899546149,0.0534359999001026,-1.0965359210968018,0.1476199924945831,-48.10750198364258,99.01499938964844,-50.41749954223633
15.415538020945814,0.0973559990525245,-1.203895926475525,0.1534759998321533,-50.78499984741211,102.23500061035156,-48.317501068115234
15.435875142345479,0.1520119905471801,-1.1926720142364502,0.1354199945926666,-42.33250045776367,103.54750061035156,-46.7599983215332
15.456212263745144,0.183243989944458,-1.0840920209884644,0.1107759997248649,-30.030000686645508,105.73500061035156,-46.900001525878906
15.476549385144809,0.1390800029039383,-0.932811975479126,0.0719799995422363,-22.9424991607666,107.60749816894533,-48.19499969482422
15.496886506544474,0.08661999553442,-0.8210600018501282,0.0697840005159378,-25.462499618530277,105.85749816894533,-48.19499969482422
15.517223627944139,0.0517279990017414,-0.7681120038032532,0.0861319974064827,-35.560001373291016,104.5625,-44.48500061035156
15.537560749343804,0.052947998046875,-0.7737239599227905,0.1154119968414306,-44.65999984741211,101.5,-37.17000198364258
15.557897870743469,0.0680759996175766,-0.7954399585723877,0.1337119936943054,-48.22999954223633,97.7375030517578,-30.274999618530277
15.578234992143134,0.0883279964327812,-0.822767972946167,0.1239520013332367,-46.77750015258789,93.02999877929688,-26.38999938964844
15.598572113542799,0.1205359995365142,-0.848143994808197,0.1129719987511634,-42.0,88.35749816894531,-25.252500534057617
15.618909234942464,0.1695799976587295,-0.8803519606590271,0.0912560001015663,-36.29500198364258,84.82250213623047,-25.375
15.63924635634213,0.2115480005741119,-0.8910880088806152,0.0817399993538856,-29.52250099182129,81.0250015258789,-25.00749969482422
15.659583477741794,0.2259439975023269,-0.904263973236084,0.0683199986815452,-24.56999969482422,77.20999908447266,-23.100000381469727
15.67992059914146,0.23887600004673,-0.9081679582595824,0.0417240001261234,-19.9325008392334,72.87000274658203,-18.51499938964844
15.700257720541124,0.2305800020694732,-0.8891359567642212,0.0175679996609687,-15.977499961853027,67.97000122070312,-13.125
15.72059484194079,0.196175992488861,-0.9023119807243348,0.0092719998210668,-14.980000495910645,62.45750045776367,-7.630000114440918
15.740931963340454,0.2005679905414581,-0.936959981918335,0.0541680008172988,-15.732500076293944,57.59249877929688,-1.715000033378601
15.76126908474012,0.2249680012464523,-1.065303921699524,0.1466439962387085,-17.045000076293945,55.02000045776367,7.71750020980835
15.781606206139784,0.2078879922628402,-1.0767719745635986,0.1583559960126876,-10.56999969482422,51.6775016784668,8.242500305175781
15.80194332753945,0.1883679926395416,-1.0943399667739868,0.1568920016288757,-2.7300000190734863,48.369998931884766,5.792500019073486
15.822280448939114,0.195932000875473,-1.0982439517974854,0.171775996685028,4.199999809265137,45.48250198364258,0.3849999904632568
15.84261757033878,0.2186239957809448,-1.0377320051193235,0.1525000035762787,10.53499984741211,43.41749954223633,-5.110000133514404
15.862954691738445,0.1920280009508133,-1.0438319444656372,0.1930039972066879,1.5750000476837158,38.86750030517578,-5.757500171661377
15.88329181313811,0.2083759903907776,-1.1680279970169067,0.1671399921178817,-13.369999885559082,36.13750076293945,-11.480000495910645
15.903628934537775,0.2325319945812225,-1.1904759407043457,0.1320039927959442,-14.577500343322754,37.59000015258789,-24.6924991607666
15.92396605593744,0.1986159980297088,-1.081164002418518,0.1205359995365142,-6.597499847412109,37.380001068115234,-31.97249984741211
15.944303177337105,0.0817399993538856,-1.0362679958343506,0.1198039948940277,-2.2225000858306885,32.07749938964844,-24.920000076293945
15.96464029873677,-0.0124439997598528,-1.0272400379180908,0.1076039969921112,2.8350000381469727,27.05500030517578,-12.582500457763672
15.984977420136435,-0.0397720001637935,-1.0648159980773926,0.1119959950447082,7.210000038146973,28.06999969482422,-2.484999895095825
16.005314541536098,-0.0375759974122047,-1.079699993133545,0.1468880027532577,12.862500190734863,35.630001068115234,2.6600000858306885
16.02565166293576,-0.0297679994255304,-1.0814080238342283,0.1485960036516189,23.25749969482422,45.95500183105469,3.0975000858306885
16.045988784335425,-0.0405040010809898,-1.042367935180664,0.1449359953403473,36.470001220703125,54.915000915527344,1.0499999523162842
16.066325905735088,-0.0456280000507831,-1.0401719808578491,0.1742160022258758,43.75,59.9900016784668,-0.8924999833106995
16.08666302713475,-0.0468479990959167,-1.063107967376709,0.1742160022258758,49.40250015258789,63.244998931884766,-2.6075000762939453
16.107000148534414,-0.0641719996929168,-1.0477359294891355,0.1798280030488968,55.98250198364258,67.79499816894531,-5.985000133514404
16.127337269934078,-0.0946719944477081,-0.9830759763717652,0.1610399931669235,61.040000915527344,70.9800033569336,-11.00749969482422
16.14767439133374,-0.1185839995741844,-0.8874279856681824,0.2044719904661178,60.07749938964844,68.54750061035156,-13.93000030517578
16.168011512733404,-0.1298079937696457,-0.8566839694976807,0.293531984090805,52.727500915527344,69.28250122070312,-11.462499618530272
16.188348634133067,-0.1215119957923889,-0.8561959862709045,0.338916003704071,44.45000076293945,73.88500213623047,-3.7799999713897705
16.20868575553273,-0.0973559990525245,-0.8105679750442505,0.3452599942684173,38.53499984741211,75.38999938964844,-1.4524999856948853
16.229022876932394,-0.0414799973368644,-0.8408240079879761,0.3486759960651397,31.149999618530277,75.5999984741211,-3.2725000381469727
16.249359998332057,0.041967999190092,-0.8932839632034302,0.3642919957637787,24.989999771118164,77.47250366210938,-3.430000066757202
16.26969711973172,0.0812520012259483,-0.9023119807243348,0.3642919957637787,21.40250015258789,79.06500244140625,-2.345000028610229
16.290034241131384,0.0756400004029274,-0.929639995098114,0.3659999966621399,18.76000022888184,77.82250213623047,-3.5
16.310371362531047,0.0165919996798038,-0.8966999650001526,0.3659999966621399,21.315000534057617,77.3324966430664,-7.070000171661377
16.33070848393071,0.0036599999293684,-0.8569279909133911,0.3896679878234863,19.092500686645508,74.98750305175781,-8.470000267028809
16.351045605330373,-0.0241560004651546,-0.8466799855232239,0.3999159932136535,13.440000534057615,75.19750213623047,-5.704999923706055
16.371382726730037,-0.0495319999754428,-0.7883639931678772,0.423583984375,9.712499618530272,68.1624984741211,-7.962500095367432
16.3917198481297,-0.0688079968094825,-0.7405399680137634,0.4221200048923492,2.257499933242798,63.10499954223633,-9.1875
16.412056969529363,-0.0783239975571632,-0.7119919657707214,0.423583984375,-7.525000095367432,58.36249923706055,-10.114999771118164
16.432394090929026,-0.1010159999132156,-0.7151640057563782,0.4006479978561401,-19.477500915527344,55.66749954223633,-8.172499656677246
16.45273121232869,-0.0924759954214096,-0.7524960041046143,0.4199239909648895,-29.645000457763672,52.8849983215332,-4.322500228881836
16.473068333728353,-0.0710039958357811,-0.8264279961585999,0.436271995306015,-34.334999084472656,51.95750045776367,-2.992500066757202
16.493405455128016,-0.0439199991524219,-0.948915958404541,0.4628680050373077,-30.92250061035156,50.067501068115234,-4.09499979019165
16.51374257652768,-0.0363559983670711,-1.0565199851989746,0.4887319803237915,-19.530000686645508,48.212501525878906,-6.579999923706055
16.534079697927343,-0.0334279984235763,-1.0794559717178345,0.5028839707374573,-1.8025000095367432,48.29999923706055,-10.692500114440918
16.554416819327006,-0.0148839997127652,-1.0118680000305176,0.5114240050315857,14.244999885559082,52.20249938964844,-14.927499771118164
16.57475394072667,-0.0056119998916983,-0.9350079894065856,0.5094720125198364,21.4375,55.52750015258789,-19.4424991607666
16.595091062126333,-0.061243999749422,-0.8913319706916809,0.4921479821205139,22.34749984741211,58.834999084472656,-24.149999618530277
16.615428183525996,-0.1512800008058548,-0.9945439696311952,0.4889760017395019,16.83500099182129,60.27000045776367,-25.00749969482422
16.63576530492566,-0.2037400007247924,-1.2656279802322388,0.5163040161132812,13.09000015258789,61.16249847412109,-15.75
16.656102426325322,-0.2095959931612014,-1.4359400272369385,0.6007279753684998,24.02750015258789,53.30500030517578,-3.587500095367432
16.676439547724986,-0.1607960015535354,-1.3146719932556152,0.5692520141601562,41.5099983215332,36.33000183105469,0.5774999856948853
16.69677666912465,-0.1568920016288757,-1.0077199935913086,0.5099599957466125,42.0,36.41749954223633,-5.617499828338623
16.717113790524312,-0.2400960028171539,-0.8417999744415283,0.3308639824390411,26.84499931335449,50.62749862670898,-22.45249938964844
16.737450911923975,-0.333547979593277,-0.9662399888038636,0.1385920047760009,15.75,44.92250061035156,-44.817501068115234
16.75778803332364,-0.2357039898633957,-1.0855560302734375,0.1703120023012161,15.137499809265137,25.1299991607666,-55.91249847412109
16.778125154723302,0.057583998888731,-1.032364010810852,0.2662039995193481,20.52750015258789,25.690000534057617,-48.54500198364258
16.798462276122965,0.2056919932365417,-0.8893799781799316,0.0841799974441528,22.69750022888184,28.227500915527344,-38.60499954223633
16.81879939752263,0.1334680020809173,-0.8432639837265015,0.0036599999293684,15.522500038146973,15.032500267028809,-34.212501525878906
16.83913651892229,0.0366000011563301,-0.8220359683036804,0.1500599980354309,-3.867500066757202,-8.050000190734863,-36.71500015258789
16.859473640321955,-0.041967999190092,-0.8403359651565552,0.3040239810943603,-25.84749984741211,-23.415000915527344,-44.08250045776367
16.879810761721618,-0.018300000578165,-0.912559986114502,0.3969880044460296,-35.349998474121094,-25.165000915527344,-47.915000915527344
16.90014788312128,0.0502640008926391,-0.9267119765281676,0.3772239983081817,-29.52250099182129,-15.050000190734863,-48.14250183105469
16.920485004520945,0.1005280017852783,-0.9740479588508606,0.2954840064048767,-22.9424991607666,-7.122499942779541,-44.5724983215332
16.940822125920608,0.1749479919672012,-0.9440360069274902,0.2581520080566406,-12.267499923706056,-6.824999809265137,-45.5525016784668
16.96115924732027,0.2415599972009658,-0.80349200963974,0.257420003414154,-4.322500228881836,-10.1850004196167,-45.81499862670898
16.981496368719935,0.2893840074539184,-0.680027961730957,0.2095959931612014,-33.407501220703125,-15.487500190734863,-28.4375
17.001833490119598,0.226187989115715,-0.7488359808921814,0.2142319977283477,-52.86750030517578,-7.857500076293945,-15.172499656677246
17.02217061151926,0.1581119894981384,-0.8566839694976807,0.2791360020637512,-59.307498931884766,-2.4674999713897705,-6.054999828338623
17.042507732918924,0.1227319985628128,-0.9386679530143738,0.3274479806423187,-52.79750061035156,-3.849999904632568,-2.0999999046325684
17.062844854318588,0.1283439993858337,-0.977463960647583,0.2942639887332916,-38.727500915527344,-6.650000095367432,0.9100000262260436
17.08318197571825,0.1708000004291534,-0.9164639711380004,0.2435119897127151,-18.82999992370605,-7.612500190734863,4.025000095367432
17.103519097117914,0.2054480016231537,-0.7964159846305847,0.2396079897880554,-6.300000190734863,-8.399999618530273,13.020000457763672
17.123856218517577,0.1998360008001327,-0.7681120038032532,0.2776719927787781,-6.072500228881836,-8.662500381469727,24.07999992370605
17.14419333991724,0.1998360008001327,-0.822767972946167,0.3118319809436798,-10.46500015258789,-8.8725004196167,31.63999938964844
17.164530461316904,0.1998360008001327,-0.9071919918060304,0.3618519902229309,-15.574999809265137,-9.607500076293944,35.29750061035156
17.184867582716567,0.1517679989337921,-1.011379957199097,0.3818599879741668,-18.23500061035156,-10.167500495910645,33.86249923706055
17.20520470411623,0.0985759943723678,-1.0587159395217896,0.4069919884204864,-14.94499969482422,-9.817500114440918,25.95249938964844
17.225541825515894,0.06734399497509,-1.0355359315872192,0.3930839896202087,-15.38249969482422,-11.375,12.880000114440918
17.245878946915557,0.1407880038022995,-0.9740479588508606,0.3330599963665008,-20.545000076293945,-17.674999237060547,0.4025000035762787
17.26621606831522,0.2266760021448135,-0.962336003780365,0.2510759830474853,-22.155000686645508,-25.042499542236328,-4.550000190734863
17.286553189714883,0.2142319977283477,-1.0882400274276731,0.2015440016984939,-18.987499237060547,-30.607500076293945,-1.7675000429153442
17.306890311114547,0.1339560002088546,-1.3268719911575315,0.2054480016231537,-10.97249984741211,-35.85750198364258,0.612500011920929
17.32722743251421,0.2152079939842224,-1.5767279863357544,0.187391996383667,-3.430000066757202,-39.182498931884766,-14.647500038146973
17.347564553913873,0.1976400017738342,-1.594051957130432,0.0214719995856285,15.71500015258789,-29.32999992370605,-35.227500915527344
17.367901675313536,0.0878399983048439,-1.3783559799194336,-0.1825120002031326,46.602500915527344,-16.65999984741211,-43.76750183105469
17.3882387967132,-0.0785679966211319,-1.0945839881896973,-0.2449759989976883,59.09749984741211,-18.200000762939453,-29.88999938964844
17.408575918112863,-0.1564040035009384,-0.7849479913711548,-0.1073599979281425,58.90499877929688,-35.06999969482422,-14.84000015258789
17.428913039512526,-0.1349319964647293,-0.7515199780464172,0.0492879971861839,47.845001220703125,-37.64250183105469,2.5899999141693115
17.44925016091219,0.0017079999670386,-0.9120720028877258,0.1410319954156875,32.63750076293945,-8.382499694824219,16.327499389648438
17.469587282311853,0.100283995270729,-1.0599359273910522,0.1749479919672012,18.14750099182129,30.852500915527344,19.424999237060547
17.489924403711516,0.0739319995045661,-1.154363989830017,0.1234639957547187,14.752500534057615,56.50749969482422,20.7549991607666
17.51026152511118,0.0241560004651546,-1.1455799341201782,0.1381039917469024,33.26750183105469,60.900001525878906,20.440000534057617
17.530598646510843,-0.0234239995479583,-1.1338679790496826,0.1466439962387085,45.84999847412109,58.46749877929688,20.895000457763672
17.550935767910506,-0.0326960012316703,-1.0775039196014404,0.1544519960880279,49.36750030517578,57.64500045776367,19.337499618530277
17.57127288931017,-0.0041479999199509,-0.9445239901542664,0.2193560004234314,34.125,58.59000015258789,14.50749969482422
17.591610010709832,0.0341599993407726,-0.9869799613952636,0.297435998916626,-5.792500019073486,65.78250122070312,5.179999828338623
17.611947132109496,0.0190319996327161,-1.0152839422225952,0.2869440019130707,5.722499847412109,74.58499908447266,-1.2424999475479126
17.63228425350916,-0.0085399998351931,-1.017967939376831,0.2418039888143539,22.592500686645508,86.9749984741211,-7.892499923706055
17.652621374908822,-0.0395279973745346,-0.9452559947967528,0.1971519887447357,36.92499923706055,96.73999786376952,-15.470000267028809
17.672958496308485,-0.0788119956851005,-0.8405799865722656,0.1581119894981384,36.22499847412109,97.24749755859376,-20.42250061035156
17.69329561770815,-0.0819839984178543,-0.8108119964599609,0.1966639906167984,21.559999465942383,89.05750274658203,-23.012500762939453
17.713632739107812,-0.0353799983859062,-0.8420439958572388,0.2644959986209869,11.095000267028809,82.56500244140625,-26.477500915527344
17.733969860507475,0.0041479999199509,-0.8857199549674988,0.2601040005683899,8.837499618530273,84.73500061035156,-31.552499771118164
17.75430698190714,0.009515999816358,-0.9162200093269348,0.2083759903907776,8.75,90.44000244140624,-36.557498931884766
17.7746441033068,0.0048799999058246,-0.9271999597549438,0.1556719988584518,7.595000267028809,93.41500091552734,-40.72249984741211
17.794981224706465,0.0146399997174739,-0.924515962600708,0.1251720041036605,6.28249979019165,92.38249969482422,-45.220001220703125
17.815318346106128,0.0200079996138811,-0.9035319685935974,0.0817399993538856,6.615000247955322,90.26499938964844,-51.6775016784668
17.83565546750579,0.0273279994726181,-0.8539999723434448,0.0485559999942779,5.932499885559082,88.98750305175781,-59.09749984741211
17.855992588905455,0.0070759998634457,-0.7861679792404175,0.0148839997127652,0.1924999952316284,88.98750305175781,-65.0824966430664
17.876329710305118,-0.0390399992465972,-0.7166280150413513,-0.0085399998351931,-6.877500057220459,87.86750030517578,-70.50749969482422
17.89666683170478,-0.0590479969978332,-0.6051200032234192,-0.0297679994255304,-13.807499885559082,86.5374984741211,-78.19000244140625
17.917003953104444,-0.1080919951200485,-0.5563200116157532,-0.0553879998624324,-24.95499992370605,81.55000305175781,-86.1875
17.937341074504108,-0.0875959992408752,-0.5856000185012817,0.0124439997598528,-40.11000061035156,71.45249938964844,-85.61000061035156
17.95767819590377,0.0073199998587369,-0.852292001247406,0.1564040035009384,-67.35749816894531,62.19499969482422,-60.567501068115234
17.978015317303434,0.0004879999905824,-1.18340003490448,0.4257799983024597,-73.5875015258789,59.43000030517578,-26.84499931335449
17.998352438703098,-0.028303999453783,-1.2907599210739136,0.5790119767189026,-31.53499984741211,60.83000183105469,-21.94499969482422
18.01868956010276,0.1097999960184097,-1.2678239345550537,0.6705119609832764,15.942500114440918,57.71500015258789,-33.31999969482422
18.039026681502424,0.2979239821434021,-1.2109719514846802,0.6358639597892761,28.997499465942383,49.560001373291016,-36.3650016784668
18.059363802902087,0.3467240035533905,-1.095315933227539,0.4694559872150421,16.799999237060547,39.40999984741211,-36.540000915527344
18.07970092430175,0.456279993057251,-1.099463939666748,0.4818999767303467,-10.587499618530272,33.67000198364258,-33.092498779296875
18.100038045701414,0.4955639839172363,-1.2351279258728027,0.6048759818077087,-28.36750030517578,41.49250030517578,-21.36750030517578
18.120375167101077,0.3569719791412353,-1.2014559507369995,0.615123987197876,-20.107500076293945,50.92499923706055,-17.797500610351562
18.14071228850074,0.2744999825954437,-1.1058080196380615,0.5863319635391235,-15.364999771118164,47.6349983215332,-17.6924991607666
18.161049409900404,0.2174039930105209,-1.0313879251480105,0.493611991405487,-21.262500762939453,37.76499938964844,-13.649999618530272
18.181386531300067,0.1483519971370697,-0.9667279720306396,0.370635986328125,-25.795000076293945,25.8125,-11.00749969482422
18.20172365269973,0.1161440014839172,-0.656603991985321,0.1334680020809173,-42.665000915527344,-7.227499961853027,13.737500190734863
18.222060774099393,0.2091079950332641,-0.6236639618873596,0.0688079968094825,-53.07749938964844,-6.684999942779541,28.280000686645508
18.242397895499057,0.3323279917240143,-0.6609959602355957,0.0597799979150295,-57.994998931884766,0.5425000190734863,38.86750030517578
18.26273501689872,0.4567679762840271,-0.7754319906234741,0.0710039958357811,-53.28749847412109,9.414999961853027,42.595001220703125
18.283072138298383,0.5292360186576843,-0.8444839715957642,0.1219999939203262,-41.9474983215332,17.149999618530273,41.05500030517578
18.303409259698046,0.5477799773216248,-0.8781560063362122,0.1034559980034828,-31.53499984741211,26.19750022888184,38.56999969482422
18.32374638109771,0.4670159816741943,-0.8942599892616272,-0.0007319999858736,-19.8799991607666,37.1349983215332,38.37749862670898
18.344083502497373,0.2066679894924163,-0.9469639658927916,-0.0385520011186599,-14.06999969482422,44.6775016784668,41.40499877929688
18.364420623897036,-0.1134599968791008,-1.1729079484939575,0.2073999941349029,-32.27000045776367,41.650001525878906,38.272499084472656
18.3847577452967,-0.1027240008115768,-1.4471639394760132,0.1566479951143264,-49.630001068115234,40.28499984741211,3.0450000762939453
18.405094866696363,-0.1595759987831115,-1.3073519468307495,-0.0251320004463195,-27.614999771118164,53.935001373291016,-44.712501525878906
18.425431988096026,-0.436271995306015,-1.0689640045166016,0.118827998638153,2.572499990463257,45.622501373291016,-60.40999984741211
18.44576910949569,-0.4921479821205139,-1.1094679832458496,0.4477399885654449,10.989999771118164,15.75,-43.400001525878906
18.466106230895353,-0.3630719780921936,-1.264407992362976,0.5394839644432068,15.890000343322754,23.1875,-20.125
18.486443352295016,-0.2713280022144317,-1.2941759824752808,0.4316360056400299,33.42499923706055,38.587501525878906,-0.2100000083446502
18.50678047369468,-0.1812919974327087,-1.0909240245819092,0.3594119846820831,45.63999938964844,34.86000061035156,10.832500457763672
