Time (seconds),acc_x,acc_y,acc_z,gyro_x,gyro_y,gyro_z
0.02029069921875,-0.2120359987020492,-0.9603840112686156,0.0078079998493194,0.7350000143051147,9.22249984741211,-1.8899999856948853
0.0405813984375,-0.226187989115715,-0.9594079852104188,0.0129319997504353,-0.4375,8.27750015258789,-1.627500057220459
0.06087209765625,-0.2339959889650344,-0.9708759784698486,0.0143959997221827,-1.7675000429153442,7.034999847412109,-0.875
0.081162796875,-0.2357039898633957,-0.9794159531593324,0.0134199997410178,-2.240000009536743,5.547500133514404,-0.1400000005960464
0.10145349609375,-0.2259439975023269,-0.9791719913482666,0.0126879997551441,-2.065000057220459,4.235000133514404,0.1749999970197677
0.1217441953125,-0.2142319977283477,-0.9769759774208068,0.0126879997551441,-1.7675000429153442,3.640000104904175,0.262499988079071
0.14203489453125,-0.2034959942102432,-0.9796599745750428,0.0121999997645616,-1.8200000524520876,3.4825000762939453,0.1400000005960464
0.16232559375,-0.1983719915151596,-0.9818559885025024,0.0078079998493194,-1.3825000524520874,3.674999952316284,-0.5074999928474426
0.18261629296874998,-0.20032399892807,-0.9869799613952636,0.0036599999293684,-0.7524999976158142,4.585000038146973,-1.0499999523162842
0.20290699218749997,-0.20032399892807,-0.986735999584198,0.0051239999011158,0.4550000131130218,5.039999961853027,-1.2424999475479126
0.22319769140624995,-0.1983719915151596,-0.9845399856567384,0.0087839998304843,1.0149999856948853,5.40749979019165,-0.9275000095367432
0.24348839062499994,-0.1934919953346252,-0.982587993144989,0.013663999736309,1.1200000047683716,6.492499828338623,-0.2100000083446502
0.2637790898437499,-0.1844639927148819,-0.9833199977874756,0.0126879997551441,1.3125,7.699999809265137,0.1574999988079071
0.2840697890624999,-0.1805599927902221,-0.9764879941940308,0.0143959997221827,1.8899999856948853,8.732500076293945,0.0175000000745058
0.3043604882812499,-0.1720200031995773,-0.9750239849090576,0.0143959997221827,1.784999966621399,9.765000343322754,-0.4724999964237213
0.3246511874999999,-0.171775996685028,-0.9767319560050964,0.0121999997645616,1.4350000619888306,10.832500457763672,-0.9449999928474426
0.34494188671874987,-0.1786080002784729,-0.990395963191986,0.0078079998493194,0.9275000095367432,11.917500495910645,-1.2074999809265137
0.36523258593749985,-0.1790959984064102,-0.9916160106658936,0.0126879997551441,1.7675000429153442,12.337499618530272,-1.7324999570846558
0.38552328515624984,-0.1793399900197982,-0.9813680052757264,0.0158599987626075,3.0274999141693115,12.337499618530272,-1.9075000286102293
0.4058139843749998,-0.1793399900197982,-0.9703879952430724,0.0151279997080564,3.1675000190734863,12.704999923706056,-1.8025000095367432
0.4261046835937498,-0.1783639937639236,-0.9718520045280457,0.0146399997174739,1.9600000381469729,13.369999885559082,-1.627500057220459
0.4463953828124998,-0.1849519908428192,-0.9781959652900696,0.0156159996986389,-0.0525000020861625,14.03499984741211,-2.3975000381469727
0.4666860820312498,-0.191783994436264,-0.9747799634933472,0.0229359995573759,-0.2100000083446502,14.052499771118164,-2.6424999237060547
0.48697678124999977,-0.1966639906167984,-0.9730719923973083,0.023667998611927,-0.7875000238418579,13.96500015258789,-2.6600000858306885
0.5072674804687498,-0.2047159969806671,-0.9842959642410278,0.0112239997833967,-1.3650000095367432,13.912500381469728,-2.6424999237060547
0.5275581796874999,-0.2186239957809448,-0.9862479567527772,0.0068319998681545,-0.7175000309944153,13.142499923706056,-1.662500023841858
0.5478488789062499,-0.2305800020694732,-0.9791719913482666,0.0070759998634457,0.6474999785423279,11.427499771118164,-1.1200000047683716
0.5681395781249999,-0.2286279946565628,-0.9691680073738098,0.0100039998069405,1.662500023841858,10.272500038146973,-0.8924999833106995
0.58843027734375,-0.224480003118515,-0.9594079852104188,0.0148839997127652,1.1375000476837158,9.292500495910645,-0.4375
0.6087209765625,-0.2132560014724731,-0.9637999534606934,0.0139079997316002,-2.2225000858306885,6.702499866485596,0.1574999988079071
0.6290116757812501,-0.2108159959316253,-0.9769759774208068,0.006343999877572,-3.3949999809265137,6.300000190734863,0.2275000065565109
0.6493023750000001,-0.2132560014724731,-0.9891759753227234,0.0014639999717473,-3.184999942779541,5.179999828338623,0.2450000047683715
0.6695930742187501,-0.2149640023708343,-0.9869799613952636,0.0019519999623298,-1.924999952316284,3.954999923706055,0.4375
0.6898837734375002,-0.2108159959316253,-0.985759973526001,0.0034159999340772,-1.347499966621399,3.4124999046325684,0.9100000262260436
0.7101744726562502,-0.205935999751091,-0.9850279688835144,0.002195999957621,-1.1024999618530271,2.870000123977661,1.1375000476837158
0.7304651718750003,-0.1995919942855835,-0.9882000088691713,-0.0009759999811649,-0.9275000095367432,2.0824999809265137,0.9100000262260436
0.7507558710937503,-0.1971519887447357,-0.9882000088691713,0.0002439999952912,-0.4900000095367431,1.4350000619888306,0.4025000035762787
0.7710465703125003,-0.1983719915151596,-0.9889319539070128,0.0065879998728632,-0.2800000011920929,0.5774999856948853,-0.1050000041723251
0.7913372695312504,-0.1949559897184372,-0.9891759753227234,0.0043919999152421,0.1574999988079071,-0.1225000023841857,-0.2275000065565109
0.8116279687500004,-0.1939799934625625,-0.97843998670578,0.009515999816358,1.3125,-0.699999988079071,-0.4724999964237213
0.8319186679687505,-0.1905639916658401,-0.9781959652900696,0.006343999877572,0.9275000095367432,-1.4700000286102295,-0.7875000238418579
0.8522093671875005,-0.1893439888954162,-0.9821000099182128,0.0058559998869895,0.3849999904632568,-1.995000004768372,-1.0674999952316284
0.8725000664062506,-0.1881240010261535,-0.982587993144989,0.0080519998446106,0.3849999904632568,-2.380000114440918,-1.0499999523162842
0.8927907656250006,-0.1886119991540908,-0.9796599745750428,0.009515999816358,0.5950000286102295,-2.432500123977661,-0.9800000190734864
0.9130814648437506,-0.1922719925642013,-0.97843998670578,0.0126879997551441,0.2450000047683715,-2.940000057220459,-0.7875000238418579
0.9333721640625007,-0.1942239999771118,-0.9764879941940308,0.0151279997080564,0.262499988079071,-3.0975000858306885,-0.6650000214576721
0.9536628632812507,-0.1966639906167984,-0.9772199988365172,0.0146399997174739,0.2450000047683715,-2.747499942779541,-0.612500011920929
0.9739535625000008,-0.1971519887447357,-0.9789279699325562,0.0117119997739791,0.6650000214576721,-2.327500104904175,-0.5249999761581421
0.9942442617187508,-0.1988599896430969,-0.9735599756240844,0.0212280005216598,0.9800000190734864,-2.1524999141693115,-0.3149999976158142
1.0145349609375007,-0.196175992488861,-0.9740479588508606,0.0207399986684322,0.4200000166893005,-2.450000047683716,-0.3675000071525574
1.0348256601562507,-0.2015440016984939,-0.9874680042266846,0.0178119987249374,0.0700000002980232,-2.134999990463257,-0.3675000071525574
1.0551163593750006,-0.2034959942102432,-0.9850279688835144,0.0175679996609687,0.7175000309944153,-2.0999999046325684,-0.4550000131130218
1.0754070585937505,-0.1981279999017715,-0.9821000099182128,0.0195199996232986,1.1200000047683716,-2.2225000858306885,-0.5600000023841858
1.0956977578125005,-0.1915400028228759,-0.9833199977874756,0.0161039996892213,1.3650000095367432,-1.995000004768372,-0.6474999785423279
1.1159884570312504,-0.1871479898691177,-0.9796599745750428,0.0165919996798038,1.9600000381469729,-1.3825000524520874,-0.5249999761581421
1.1362791562500003,-0.1900759935379028,-0.9713639616966248,0.0170799996703863,2.7300000190734863,-0.5600000023841858,-0.4025000035762787
1.1565698554687502,-0.1883679926395416,-0.96697199344635,0.0202520005404949,1.9075000286102293,-1.837499976158142,-0.6650000214576721
1.1768605546875002,-0.1876360028982162,-0.974291980266571,0.0195199996232986,1.1375000476837158,-1.3650000095367432,-0.4375
1.19715125390625,-0.1898320019245147,-0.9794159531593324,0.0214719995856285,0.5774999856948853,-0.699999988079071,-0.332500010728836
1.217441953125,-0.1856839954853058,-0.9842959642410278,0.0219599995762109,-0.1574999988079071,-0.7875000238418579,-0.1749999970197677
1.23773265234375,-0.1886119991540908,-0.9840520024299622,0.018300000578165,-0.1400000005960464,-0.0525000020861625,-0.2275000065565109
1.2580233515625,-0.1927599906921386,-0.9818559885025024,0.0165919996798038,0.0175000000745058,0.0874999985098838,-0.3849999904632568
1.2783140507812498,-0.1991039961576461,-0.9796599745750428,0.0146399997174739,0.1225000023841857,0.5774999856948853,-0.5774999856948853
1.2986047499999998,-0.2005679905414581,-0.97843998670578,0.0158599987626075,0.4900000095367431,0.8400000333786011,-0.699999988079071
1.3188954492187497,-0.1998360008001327,-0.9764879941940308,0.0200079996138811,0.6825000047683716,0.7875000238418579,-0.7875000238418579
1.3391861484374996,-0.196175992488861,-0.981123983860016,0.018300000578165,0.5249999761581421,0.9800000190734864,-0.7699999809265137
1.3594768476562495,-0.1981279999017715,-0.9806360006332396,0.0204959996044635,0.8575000166893005,0.875,-0.875
1.3797675468749995,-0.1983719915151596,-0.9818559885025024,0.0168359987437725,0.3149999976158142,0.7524999976158142,-0.612500011920929
1.4000582460937494,-0.1976400017738342,-0.9852719902992249,0.0109799997881054,0.7699999809265137,0.4200000166893005,-0.4724999964237213
1.4203489453124993,-0.1915400028228759,-0.9845399856567384,0.0129319997504353,1.3300000429153442,-0.2275000065565109,0.0700000002980232
1.4406396445312493,-0.1881240010261535,-0.9840520024299622,0.0180559996515512,1.627500057220459,-0.6825000047683716,0.0350000001490116
1.4609303437499992,-0.1951999962329864,-0.9764879941940308,0.0192760005593299,1.9774999618530276,-0.9275000095367432,-0.5249999761581421
1.4812210429687491,-0.1888559907674789,-0.9803919792175292,0.0180559996515512,1.995000004768372,-1.3825000524520874,-0.9975000023841858
1.501511742187499,-0.1869039982557296,-0.977952003479004,0.0163480006158351,1.9424999952316284,-1.5575000047683716,-0.9449999928474426
1.521802441406249,-0.1930039972066879,-0.9755119681358336,0.0202520005404949,1.3650000095367432,-1.3650000095367432,-0.9975000023841858
1.542093140624999,-0.1861719936132431,-0.9918599724769592,0.0175679996609687,0.1574999988079071,-1.5399999618530271,-0.5425000190734863
1.5623838398437488,-0.1737279891967773,-0.9806360006332396,0.0256199985742568,1.6974999904632568,-1.6974999904632568,-0.962499976158142
1.5826745390624988,-0.1715319901704788,-0.9791719913482666,0.0197639986872673,1.8025000095367432,-0.8224999904632568,-1.627500057220459
1.6029652382812487,-0.1751919984817505,-0.9799039959907532,0.0178119987249374,1.5049999952316284,0.4025000035762787,-1.4175000190734863
1.6232559374999986,-0.1781200021505355,-0.9830759763717652,0.0246439985930919,0.8924999833106995,1.2599999904632568,-1.3125
1.6435466367187486,-0.1827559918165207,-0.9840520024299622,0.0226919986307621,1.680000066757202,3.762500047683716,-1.5750000476837158
1.6638373359374985,-0.1837320029735565,-0.9821000099182128,0.0241560004651546,2.275000095367432,4.8125,-1.5924999713897705
1.6841280351562484,-0.1849519908428192,-0.9777079820632936,0.0265959985554218,2.5199999809265137,5.985000133514404,-1.784999966621399
1.7044187343749984,-0.1822679936885833,-0.9767319560050964,0.0265959985554218,2.2925000190734863,7.315000057220459,-1.784999966621399
1.7247094335937483,-0.1803160011768341,-0.974291980266571,0.028303999453783,1.9774999618530276,8.27750015258789,-1.662500023841858
1.7450001328124982,-0.1805599927902221,-0.9720959663391112,0.0292799994349479,1.4700000286102295,9.135000228881836,-1.5225000381469729
1.7652908320312481,-0.1829999983310699,-0.9757559895515442,0.0292799994349479,0.8575000166893005,10.167500495910645,-1.3650000095367432
1.785581531249998,-0.1876360028982162,-0.9821000099182128,0.0258639995008707,0.5950000286102295,11.130000114440918,-1.2599999904632568
1.805872230468748,-0.185928001999855,-0.9852719902992249,0.0265959985554218,0.8400000333786011,11.829999923706056,-1.0499999523162842
1.826162929687498,-0.1827559918165207,-0.985759973526001,0.0265959985554218,1.1200000047683716,12.582500457763672,-0.8050000071525574
1.8464536289062479,-0.1815359890460968,-0.9833199977874756,0.0222040005028247,1.6100000143051147,13.317500114440918,-0.7875000238418579
1.8667443281249978,-0.1790959984064102,-0.9789279699325562,0.0207399986684322,1.784999966621399,13.59749984741211,-0.9449999928474426
1.8870350273437477,-0.1798280030488968,-0.9777079820632936,0.0156159996986389,1.4524999856948853,14.017499923706056,-1.190000057220459
1.9073257265624977,-0.1815359890460968,-0.9801479578018188,0.0151279997080564,1.4874999523162842,14.4375,-1.4874999523162842
1.9276164257812476,-0.1854400038719177,-0.9823439717292786,0.0185439996421337,1.5924999713897705,14.595000267028809,-1.6100000143051147
1.9479071249999975,-0.1878799945116043,-0.9842959642410278,0.0202520005404949,1.6974999904632568,14.612500190734863,-1.680000066757202
1.9681978242187474,-0.1869039982557296,-0.9830759763717652,0.0190319996327161,2.240000009536743,14.682499885559082,-1.8899999856948853
1.9884885234374974,-0.1781200021505355,-0.9767319560050964,0.0204959996044635,2.3975000381469727,14.4375,-2.2049999237060547
2.0087792226562473,-0.1742160022258758,-0.9786840081214904,0.0165919996798038,1.7324999570846558,14.542500495910645,-2.309999942779541
2.0290699218749975,-0.1710439920425415,-0.9808799624443054,0.0143959997221827,1.1725000143051147,15.207500457763672,-2.450000047683716
2.0493606210937476,-0.1720200031995773,-0.9842959642410278,0.0117119997739791,0.7699999809265137,15.364999771118164,-2.432500123977661
2.0696513203124978,-0.1776320040225982,-0.9835639595985411,0.0178119987249374,1.2949999570846558,14.9975004196167,-2.502500057220459
2.089942019531248,-0.1781200021505355,-0.9894199967384338,0.0190319996327161,1.2074999809265137,14.80500030517578,-2.362499952316284
2.110232718749998,-0.1798280030488968,-0.9896639585494996,0.0178119987249374,1.8899999856948853,14.9975004196167,-2.275000095367432
2.1305234179687482,-0.1834879964590072,-0.9838079810142516,0.0168359987437725,2.625,14.962499618530272,-2.117500066757202
2.1508141171874984,-0.1834879964590072,-0.9801479578018188,0.0180559996515512,2.747499942779541,14.332500457763672,-2.047499895095825
2.1711048164062485,-0.1849519908428192,-0.9808799624443054,0.0175679996609687,2.572499990463257,14.262499809265137,-1.9075000286102293
2.1913955156249987,-0.1871479898691177,-0.9830759763717652,0.0175679996609687,2.502500057220459,14.350000381469728,-1.784999966621399
2.211686214843749,-0.1876360028982162,-0.9847840070724488,0.0180559996515512,2.677500009536743,13.824999809265137,-1.837499976158142
2.231976914062499,-0.185928001999855,-0.9835639595985411,0.0195199996232986,2.940000057220459,13.177499771118164,-1.9774999618530276
2.252267613281249,-0.1861719936132431,-0.9845399856567384,0.0141519997268915,3.762500047683716,12.75749969482422,-2.257499933242798
2.2725583124999993,-0.1827559918165207,-0.9842959642410278,0.0161039996892213,3.8324999809265137,12.21500015258789,-2.362499952316284
2.2928490117187494,-0.1756799966096878,-0.9860039949417114,0.0163480006158351,3.7799999713897705,12.337499618530272,-2.240000009536743
2.3131397109374996,-0.1754359900951385,-0.9879559874534608,0.0141519997268915,4.130000114440918,12.635000228881836,-2.345000028610229
2.3334304101562497,-0.1727519929409027,-0.9874680042266846,0.0143959997221827,4.900000095367432,12.600000381469728,-2.694999933242798
2.353721109375,-0.1708000004291534,-0.9877119660377502,0.0187879987061023,5.302500247955322,12.460000038146973,-2.9049999713897705
2.37401180859375,-0.1729959994554519,-0.9864919781684875,0.023667998611927,5.494999885559082,13.107500076293944,-2.765000104904175
2.3943025078125,-0.171775996685028,-0.9791719913482666,0.0248879995197057,5.740000247955322,13.842499732971191,-2.9574999809265137
2.4145932070312504,-0.1722639948129654,-0.9852719902992249,0.0165919996798038,5.652500152587891,14.315000534057615,-3.430000066757202
2.4348839062500005,-0.1744599938392639,-0.9769759774208068,0.0204959996044635,6.28249979019165,14.84000015258789,-3.6575000286102295
2.4551746054687507,-0.1749479919672012,-0.97599995136261,0.0231800004839897,5.635000228881836,15.032500267028809,-3.4124999046325684
2.475465304687501,-0.1754359900951385,-0.9720959663391112,0.0243999995291233,5.355000019073486,15.172499656677246,-3.3424999713897705
2.495756003906251,-0.1781200021505355,-0.9860039949417114,0.0202520005404949,4.637499809265137,15.662500381469728,-3.4124999046325684
2.516046703125001,-0.1761679947376251,-0.9813680052757264,0.0207399986684322,5.057499885559082,16.065000534057617,-3.587500095367432
2.5363374023437513,-0.175924003124237,-0.977952003479004,0.0195199996232986,5.425000190734863,16.030000686645508,-3.5174999237060547
2.5566281015625014,-0.1778759956359863,-0.981123983860016,0.020983999595046,5.372499942779541,16.607500076293945,-3.447499990463257
2.5769188007812516,-0.1734839975833892,-0.9835639595985411,0.0226919986307621,4.392499923706055,17.412500381469727,-3.587500095367432
2.5972095000000017,-0.1678719967603683,-0.9916160106658936,0.0131759997457265,4.059999942779541,17.482500076293945,-3.884999990463257
2.617500199218752,-0.1617719978094101,-0.9894199967384338,0.0129319997504353,5.372499942779541,17.885000228881836,-4.357500076293945
2.637790898437502,-0.1617719978094101,-0.9835639595985411,0.010491999797523,6.195000171661377,19.0575008392334,-4.882500171661377
2.658081597656252,-0.1586000025272369,-0.9789279699325562,0.0085399998351931,6.28249979019165,20.49250030517578,-5.372499942779541
2.6783722968750023,-0.1559159904718399,-0.9764879941940308,0.0048799999058246,5.6875,21.542499542236328,-6.072500228881836
2.6986629960937525,-0.1534759998321533,-0.9842959642410278,-0.0017079999670386,4.934999942779541,22.96000099182129,-6.230000019073486
2.7189536953125026,-0.152988001704216,-0.9767319560050964,0.0012199999764561,5.599999904632568,24.0625,-6.247499942779541
2.739244394531253,-0.1498159915208816,-0.9847840070724488,-0.0090279998257756,4.53249979019165,25.375,-6.579999923706055
2.759535093750003,-0.1410319954156875,-0.9838079810142516,-0.0129319997504353,4.182499885559082,26.40749931335449,-7.595000267028809
2.779825792968753,-0.1390800029039383,-0.9886879920959472,-0.0197639986872673,3.587500095367432,28.15749931335449,-7.892499923706055
2.8001164921875032,-0.1219999939203262,-0.9969840049743652,-0.0366000011563301,4.164999961853027,29.924999237060547,-8.382499694824219
2.8204071914062534,-0.114436000585556,-0.987223982810974,-0.0368440002202987,5.914999961853027,32.375,-8.382499694824219
2.8406978906250036,-0.100283995270729,-1.004547953605652,-0.0651479959487915,4.900000095367432,34.6150016784668,-9.3100004196167
2.8609885898437537,-0.0427000001072883,-0.9891759753227234,-0.062219999730587,4.130000114440918,37.782501220703125,-11.795000076293944
2.881279289062504,-0.0270840004086494,-1.006500005722046,-0.0641719996929168,1.3300000429153442,41.70249938964844,-11.182499885559082
2.901569988281254,-0.0161039996892213,-0.9913719892501832,-0.0563639998435974,2.502500057220459,46.8125,-10.8149995803833
2.921860687500004,-0.0117119997739791,-0.9935680031776428,-0.0712479948997497,1.1024999618530271,49.157501220703125,-11.164999961853027
2.9421513867187543,-0.0141519997268915,-0.9928359985351562,-0.0651479959487915,-0.1749999970197677,49.77000045776367,-12.494999885559082
2.9624420859375045,-0.0261080004274845,-1.0028399229049685,-0.047580000013113,-2.870000123977661,49.34999847412109,-14.052499771118164
2.9827327851562546,-0.0417240001261234,-1.0057679414749146,-0.0161039996892213,-4.497499942779541,49.40250015258789,-15.539999961853027
3.0030234843750048,-0.052947998046875,-0.9999119639396667,0.0100039998069405,-6.422500133514404,51.712501525878906,-17.412500381469727
3.023314183593755,-0.023667998611927,-1.017967939376831,0.0043919999152421,-10.640000343322754,55.29999923706055,-19.670000076293945
3.043604882812505,-0.002195999957621,-1.0467599630355835,-0.0090279998257756,-14.210000038146973,60.40999984741211,-21.052499771118164
3.0638955820312552,0.0241560004651546,-1.0150399208068848,0.0219599995762109,-15.154999732971191,61.96749877929688,-18.200000762939453
3.0841862812500054,0.0390399992465972,-1.039927959442139,0.002195999957621,-12.600000381469728,63.087501525878906,-15.38249969482422
3.1044769804687555,0.0202520005404949,-1.012355923652649,0.0190319996327161,-6.492499828338623,64.52249908447266,-12.65250015258789
3.1247676796875057,0.0026839999482035,-1.010159969329834,0.0168359987437725,-3.954999923706055,65.23999786376953,-10.605000495910645
3.145058378906256,-0.0065879998728632,-1.0167479515075684,-0.0117119997739791,-0.962499976158142,68.1624984741211,-9.239999771118164
3.165349078125006,-0.0141519997268915,-1.010892033576965,-0.0348920002579689,2.275000095367432,70.50749969482422,-8.085000038146973
3.185639777343756,-0.0153719997033476,-1.0182119607925415,-0.0492879971861839,3.5350000858306885,71.61000061035156,-7.28000020980835
3.2059304765625063,-0.0339160002768039,-1.007964015007019,-0.0505079999566078,4.760000228881836,71.99500274658203,-6.947500228881836
3.2262211757812564,-0.0422119982540607,-0.9840520024299622,-0.0407480001449584,3.640000104904175,71.48750305175781,-6.247499942779541
3.2465118750000066,-0.0368440002202987,-0.9830759763717652,-0.0278159994632005,0.0525000020861625,70.64749908447266,-4.304999828338623
3.2668025742187567,-0.0251320004463195,-0.9884439706802368,-0.0195199996232986,-0.6825000047683716,70.0,-2.450000047683716
3.287093273437507,-0.0092719998210668,-0.973315954208374,-0.0280600003898143,1.3125,70.47250366210938,-0.5074999928474426
3.307383972656257,0.0048799999058246,-0.936959981918335,-0.0402599982917308,2.257499933242798,71.62750244140625,2.747499942779541
3.327674671875007,-0.018300000578165,-0.9423279762268066,-0.0585599988698959,0.8575000166893005,73.77999877929688,6.84250020980835
3.3479653710937574,0.0163480006158351,-0.9518439769744872,-0.0456280000507831,0.6650000214576721,73.67500305175781,9.975000381469728
3.3682560703125075,0.0780799984931945,-0.9667279720306396,-0.0580720007419586,-1.75,74.77750396728516,13.107500076293944
3.3885467695312577,0.1215119957923889,-0.9838079810142516,-0.0783239975571632,-5.022500038146973,76.75499725341797,15.767499923706056
3.408837468750008,0.1122400015592575,-1.0082080364227295,-0.0912560001015663,-7.4375,75.96749877929688,17.9375
3.429128167968758,0.0856439992785453,-1.034071922302246,-0.0736880004405975,-5.162499904632568,71.34750366210938,19.075000762939453
3.449418867187508,0.061243999749422,-1.013819932937622,-0.0785679966211319,12.390000343322754,66.22000122070312,18.34000015258789
3.4697095664062583,0.0670999959111213,-0.9757559895515442,-0.0763719975948333,17.780000686645508,64.38249969482422,17.27250099182129
3.4900002656250084,0.0800319984555244,-0.9594079852104188,-0.0514839999377727,16.22249984741211,59.255001068115234,16.887500762939453
3.5102909648437586,0.0878399983048439,-0.961847960948944,-0.0378200002014637,11.917500495910645,55.317501068115234,16.450000762939453
3.5305816640625087,0.0688079968094825,-0.97599995136261,-0.0253759995102882,8.470000267028809,52.23749923706055,16.274999618530273
3.550872363281259,0.0580720007419586,-0.9957639575004578,-0.0012199999764561,7.157500267028809,45.67499923706055,16.047500610351562
3.571163062500009,0.0602679997682571,-0.9838079810142516,0.037331998348236,9.9399995803833,37.625,16.1875
3.591453761718759,0.0619760006666183,-0.9747799634933472,0.0546559989452362,13.510000228881836,30.712499618530277,16.502500534057617
3.6117444609375093,0.1071159988641738,-0.9418399930000304,0.0470919981598854,18.95249938964844,24.7450008392334,17.56999969482422
3.6320351601562595,0.0805199965834617,-0.9952759742736816,-0.0251320004463195,17.09749984741211,22.854999542236328,19.70499992370605
3.6523258593750096,-0.0453839972615242,-1.1360639333724976,-0.0258639995008707,3.0625,22.592500686645508,13.037500381469728
3.67261655859376,-0.2608360052108764,-1.370792031288147,0.0134199997410178,-15.71500015258789,17.045000076293945,-13.369999885559082
3.69290725781251,-0.4516440033912658,-1.3803080320358276,0.0407480001449584,1.5399999618530271,0.8050000071525574,-53.51499938964844
3.71319795703126,-0.2603479921817779,-1.067988038063049,-0.037331998348236,42.06999969482422,-15.994999885559082,-72.59000396728516
3.7334886562500103,-0.0190319996327161,-0.8064199686050415,-0.0863759964704513,51.852500915527344,-12.18000030517578,-55.282501220703125
3.7537793554687604,0.0663679987192154,-0.8042240142822266,-0.0570959970355033,30.520000457763672,6.894999980926514,-19.72249984741211
3.7740700546875106,0.0129319997504353,-0.9306159615516664,-0.0212280005216598,3.237499952316284,24.482500076293945,9.327500343322754
3.7943607539062607,-0.0412359982728958,-1.089460015296936,-0.0156159996986389,-12.72249984741211,39.51499938964844,24.325000762939453
3.814651453125011,-0.0649039968848228,-1.2431799173355105,-0.032940000295639,-6.824999809265137,54.23250198364258,29.78499984741211
3.834942152343761,-0.1527439951896667,-1.2724599838256836,-0.0168359987437725,19.0049991607666,66.74500274658203,29.662500381469727
3.855232851562511,-0.2047159969806671,-1.1319159269332886,0.0456280000507831,48.91249847412109,70.57749938964844,25.042499542236328
3.8755235507812613,-0.1864160001277923,-1.0011320114135742,0.0051239999011158,62.63249969482422,72.83499908447266,22.08500099182129
3.8958142500000115,-0.1661639958620071,-0.8247199654579163,-0.0641719996929168,64.01499938964844,86.0824966430664,21.612499237060547
3.9161049492187616,-0.1442039906978607,-0.7807999849319458,-0.0597799979150295,47.70500183105469,93.37999725341795,21.524999618530277
3.9363956484375118,-0.1525000035762787,-0.8627839684486389,-0.0036599999293684,36.73250198364258,90.94750213623048,14.699999809265137
3.956686347656262,-0.2217959910631179,-0.8957239985466003,0.0212280005216598,38.56999969482422,91.24500274658205,4.235000133514404
3.976977046875012,-0.2723039984703064,-0.9106079936027528,0.0478239990770816,36.6974983215332,93.22250366210938,0.262499988079071
3.9972677460937622,-0.2561999857425689,-0.8442400097846985,0.0778359994292259,37.88750076293945,89.84500122070312,-1.5750000476837158
4.017558445312512,-0.2442439943552017,-0.8474119901657104,0.0741759985685348,31.920000076293945,86.5374984741211,-3.6575000286102295
4.037849144531262,-0.226187989115715,-0.912559986114502,0.0900359973311424,24.727500915527344,82.30249786376953,-2.694999933242798
4.058139843750012,-0.1666519939899444,-1.0584720373153689,0.1005280017852783,24.920000076293945,79.16999816894531,-1.1024999618530271
4.0784305429687615,-0.1412760019302368,-1.060912013053894,0.1022359952330589,31.255001068115234,82.18000030517578,-2.1700000762939453
4.098721242187511,-0.158843994140625,-1.0352920293807983,0.1232199966907501,33.28499984741211,83.00250244140625,-4.130000114440918
4.119011941406261,-0.1805599927902221,-1.020408034324646,0.138835996389389,33.23250198364258,81.69000244140625,-6.28249979019165
4.139302640625011,-0.1822679936885833,-0.9681919813156128,0.1610399931669235,36.34749984741211,81.44499969482422,-8.137499809265137
4.15959333984376,-0.183243989944458,-0.9193919897079468,0.1625040024518966,35.94499969482422,82.3550033569336,-8.557499885559082
4.17988403906251,-0.1827559918165207,-0.901091992855072,0.1637239903211593,31.412500381469727,82.02249908447266,-7.769999980926514
4.20017473828126,-0.1910519897937774,-0.8984079957008362,0.1798280030488968,26.26749992370605,81.14749908447266,-6.650000095367432
4.2204654375000095,-0.2105719894170761,-0.9067040085792542,0.1951999962329864,21.052499771118164,78.75,-6.510000228881836
4.240756136718759,-0.2100839912891388,-0.9108519554138184,0.2217959910631179,17.290000915527344,74.65499877929688,-7.735000133514404
4.261046835937509,-0.2086199969053268,-0.913047969341278,0.2191119939088821,14.90999984741211,73.08000183105469,-9.292500495910645
4.281337535156259,-0.2034959942102432,-0.8984079957008362,0.2274079918861389,14.017499923706056,71.87249755859375,-10.797499656677246
4.301628234375008,-0.2039839923381805,-0.8940159678459167,0.2296039909124374,11.042500495910645,70.1050033569336,-11.095000267028809
4.321918933593758,-0.1930039972066879,-0.8735199570655823,0.2364359945058822,7.507500171661377,67.63749694824219,-11.480000495910645
4.342209632812508,-0.2139879912137985,-0.8776679635047913,0.240339994430542,1.1200000047683716,64.48750305175781,-11.952500343322754
4.362500332031257,-0.2520520091056824,-0.8791319727897644,0.2335079908370971,-2.484999895095825,60.04249954223633,-12.635000228881836
4.382791031250007,-0.2581520080566406,-0.8886479735374451,0.2544919848442077,-5.022500038146973,55.09000015258789,-12.302499771118164
4.403081730468757,-0.2627879977226257,-0.8803519606590271,0.2757200002670288,-5.617499828338623,50.75,-11.899999618530272
4.4233724296875065,-0.2640079855918884,-0.8920639753341675,0.2915799915790558,-7.192500114440918,46.74250030517578,-10.97249984741211
4.443663128906256,-0.2505879998207092,-0.8996279835700989,0.285968005657196,-7.699999809265137,43.435001373291016,-10.342499732971191
4.463953828125006,-0.2010560035705566,-0.949404001235962,0.2784039974212646,-8.260000228881836,40.42499923706055,-10.3774995803833
4.484244527343756,-0.1693359911441803,-0.9806360006332396,0.2588839828968048,-5.652500152587891,38.4474983215332,-11.619999885559082
4.504535226562505,-0.1949559897184372,-0.9772199988365172,0.2437559962272644,-5.96750020980835,35.10499954223633,-10.97249984741211
4.524825925781255,-0.2093520015478134,-0.9542839527130128,0.2505879998207092,-7.980000019073486,32.900001525878906,-8.3125
4.545116625000005,-0.2052039951086044,-0.9281759858131408,0.2708399891853332,-10.727499961853027,32.689998626708984,-7.157500267028809
4.5654073242187545,-0.2154520004987716,-0.948915958404541,0.2493679970502853,-14.892499923706056,34.14250183105469,-7.454999923706055
4.585698023437504,-0.2715719938278198,-1.0099159479141235,0.2354599982500076,-18.899999618530277,35.122501373291016,-7.244999885559082
4.605988722656254,-0.3230559825897217,-1.0982439517974854,0.2174039930105209,-21.979999542236328,31.780000686645508,-5.197500228881836
4.626279421875004,-0.3813720047473907,-1.230247974395752,0.148839995265007,-23.34499931335449,28.47249984741211,0.7699999809265137
4.646570121093753,-0.3625839948654175,-1.3378520011901855,0.1566479951143264,-14.612500190734863,20.982500076293945,8.732500076293945
4.666860820312503,-0.3545320034027099,-1.2902719974517822,0.0885719954967498,16.975000381469727,-3.220000028610229,19.26749992370605
4.687151519531253,-0.2518079876899719,-1.1031240224838257,0.0732000023126602,28.36750030517578,-11.0600004196167,20.33500099182129
4.7074422187500025,-0.1927599906921386,-0.9059720039367676,0.0802759975194931,25.67250061035156,-12.862500190734863,13.15999984741211
4.727732917968752,-0.1376159936189651,-0.7795799970626831,0.0649039968848228,15.38249969482422,-11.864999771118164,0.1924999952316284
4.748023617187502,-0.1068719998002052,-0.7261439561843872,0.0392839983105659,8.645000457763672,-8.697500228881836,-12.932499885559082
4.768314316406252,-0.0873520001769065,-0.7241919636726379,-0.0505079999566078,4.235000133514404,-6.230000019073486,-21.927499771118164
4.788605015625001,-0.0644159987568855,-0.7449319958686829,-0.085887998342514,-2.782500028610229,-7.052500247955322,-22.540000915527344
4.808895714843751,-0.1034559980034828,-0.8249639868736267,-0.0697840005159378,-21.29750061035156,-10.220000267028809,-13.369999885559082
4.829186414062501,-0.1215119957923889,-0.945743978023529,-0.0300120003521442,-41.38750076293945,-15.71500015258789,1.2599999904632568
4.84947711328125,-0.0993079990148544,-1.0504199266433716,-0.0417240001261234,-47.1974983215332,-16.677499771118164,11.182499885559082
4.8697678125,-0.0927200019359588,-1.1192280054092407,-0.0453839972615242,-36.994998931884766,-15.837499618530272,11.760000228881836
4.89005851171875,-0.099551998078823,-1.1287440061569214,-0.0041479999199509,-16.047500610351562,-18.725000381469727,4.707499980926514
4.9103492109374995,-0.1093119978904724,-1.1158119440078735,0.0180559996515512,-0.0700000002980232,-21.122499465942383,-6.019999980926514
4.930639910156249,-0.1298079937696457,-1.1187399625778198,-0.0119559997692704,4.53249979019165,-25.96999931335449,-13.59749984741211
4.950930609374999,-0.1141919940710067,-1.088727951049805,-0.0165919996798038,9.292500495910645,-30.467500686645508,-17.167499542236328
4.971221308593749,-0.0973559990525245,-1.0040600299835205,0.0082959998399019,15.207500457763672,-29.924999237060547,-19.354999542236328
4.991512007812498,-0.0797879993915557,-0.8891359567642212,0.0219599995762109,17.412500381469727,-30.082500457763672,-19.4424991607666
5.011802707031248,-0.0661239996552467,-0.8288679718971252,0.0280600003898143,10.850000381469728,-28.350000381469727,-16.625
5.032093406249998,-0.0536799989640712,-0.8264279961585999,0.0483120009303092,-1.5049999952316284,-24.7450008392334,-14.157500267028809
5.0523841054687475,-0.0639280006289482,-0.8747400045394897,0.0583159998059272,-15.539999961853027,-23.799999237060547,-11.795000076293944
5.072674804687497,-0.0805199965834617,-0.9284200072288512,0.0824719965457916,-24.412500381469727,-25.1825008392334,-8.994999885559082
5.092965503906247,-0.1029679998755455,-0.9806360006332396,0.1039439961314201,-28.087499618530277,-27.299999237060547,-6.965000152587891
5.113256203124997,-0.0988200008869171,-1.0196759700775146,0.1171199977397918,-26.19750022888184,-31.622499465942383,-6.019999980926514
5.133546902343746,-0.0790559947490692,-1.026263952255249,0.1090679988265037,-18.024999618530277,-32.79500198364258,-4.952499866485596
5.153837601562496,-0.0278159994632005,-0.981611967086792,0.0980879962444305,-8.225000381469727,-33.11000061035156,-1.784999966621399
5.174128300781246,-0.0070759998634457,-0.9320799708366394,0.1129719987511634,-5.635000228881836,-33.07500076293945,3.4825000762939453
5.1944189999999955,-0.010491999797523,-0.8937720060348511,0.1546960026025772,-8.050000190734863,-32.35750198364258,8.907500267028809
5.214709699218745,-0.0229359995573759,-0.9142679572105408,0.1837320029735565,-15.942500114440918,-32.51499938964844,12.65250015258789
5.235000398437495,-0.0231800004839897,-0.9342759847640992,0.2044719904661178,-19.21500015258789,-34.474998474121094,14.595000267028809
5.255291097656245,0.0068319998681545,-0.9350079894065856,0.1922719925642013,-19.65250015258789,-33.38999938964844,16.8174991607666
5.275581796874994,0.0117119997739791,-1.0328519344329834,0.1229759976267814,-25.8125,-30.450000762939453,13.649999618530272
5.295872496093744,-0.0109799997881054,-1.087507963180542,0.1354199945926666,-23.537500381469727,-33.372501373291016,7.105000019073486
5.316163195312494,-0.0485559999942779,-1.099463939666748,0.1825120002031326,-13.859999656677246,-38.77999877929688,-0.0700000002980232
5.336453894531243,-0.1115079969167709,-1.0570080280303955,0.2483920007944107,0.0175000000745058,-48.02000045776367,-3.7274999618530273
5.356744593749993,-0.1100439950823783,-0.9894199967384338,0.2525399923324585,9.362500190734863,-62.02000045776367,-4.619999885559082
5.377035292968743,-0.0588039979338645,-0.952575981616974,0.1571359932422638,9.327500343322754,-72.9749984741211,-2.572499990463257
5.3973259921874925,0.038307998329401,-0.9762439727783204,-0.0548999980092048,-0.4025000035762787,-71.47000122070312,1.7675000429153442
5.417616691406242,0.0663679987192154,-1.1629040241241455,-0.374783992767334,-25.58500099182129,-55.6150016784668,0.5074999928474426
5.437907390624992,-0.1676279902458191,-1.3254079818725586,-0.3020719885826111,-40.26750183105469,-38.77999877929688,-14.595000267028809
5.458198089843742,-0.2842600047588348,-1.4008039236068726,-0.0544119998812675,-37.64250183105469,-35.10499954223633,-41.10750198364258
5.478488789062491,-0.236191987991333,-1.4998679161071775,-0.0270840004086494,-6.369999885559082,-32.602500915527344,-49.209999084472656
5.498779488281241,-0.1385920047760009,-1.2329319715499878,-0.0756400004029274,46.165000915527344,-31.46500015258789,-35.595001220703125
5.519070187499991,-0.1546960026025772,-0.9464759826660156,-0.0832040011882782,56.77000045776367,-43.92499923706055,-11.130000114440918
5.5393608867187405,-0.2142319977283477,-0.8696159720420837,-0.0863759964704513,48.125,-56.560001373291016,7.840000152587891
5.55965158593749,-0.284991979598999,-0.7263879776000977,-0.0309880003333091,45.32500076293945,-50.85499954223633,20.8075008392334
5.57994228515624,-0.2962159812450409,-0.6885679960250854,-0.0222040005028247,25.375,-37.02999877929688,25.795000076293945
5.60023298437499,-0.2718159854412079,-0.7773839831352234,-0.0092719998210668,1.0850000381469729,-28.03499984741211,23.940000534057617
5.620523683593739,-0.1890999972820282,-0.9552599787712096,0.0056119998916983,-15.557499885559082,-19.82749938964844,22.03249931335449
5.640814382812489,-0.095891997218132,-1.071403980255127,0.0880839973688125,-16.3799991607666,-16.485000610351562,22.977500915527344
5.661105082031239,-0.0888160020112991,-1.0794559717178345,0.1122400015592575,-0.5774999856948853,-18.51499938964844,22.417499542236328
5.6813957812499885,-0.0912560001015663,-1.0033279657363892,0.1163880005478859,15.837499618530272,-23.502500534057617,25.270000457763672
5.701686480468738,-0.244731992483139,-0.9264679551124572,0.0973559990525245,30.39750099182129,-25.655000686645508,22.854999542236328
5.721977179687488,-0.3659999966621399,-0.8588799834251404,-0.0378200002014637,37.415000915527344,-32.182498931884766,16.55500030517578
5.742267878906238,-0.3386719822883606,-0.8361879587173462,-0.0390399992465972,28.787500381469727,-27.895000457763672,16.782499313354492
5.762558578124987,-0.3096359968185425,-0.8988959789276123,0.071492001414299,13.52750015258789,-19.18000030517578,18.497499465942383
5.782849277343737,-0.2845039963722229,-0.9996680021286012,0.1193159967660904,-4.059999942779541,-23.852500915527344,11.480000495910645
5.803139976562487,-0.2842600047588348,-0.9757559895515442,0.1493279933929443,-3.849999904632568,-33.25,6.615000247955322
5.823430675781236,-0.2427799999713897,-0.8691279888153076,0.1578679978847503,1.662500023841858,-40.337501525878906,6.965000152587891
5.843721374999986,-0.218868002295494,-0.8466799855232239,0.1515239924192428,-1.4524999856948853,-46.98749923706055,7.927500247955322
5.864012074218736,-0.1683599948883056,-0.8942599892616272,0.1324919909238815,-0.8224999904632568,-49.17499923706055,7.122499942779541
5.8843027734374855,-0.0751519948244094,-0.9330559968948364,0.1410319954156875,1.784999966621399,-36.75,4.059999942779541
5.904593472656235,-0.0839359983801841,-0.9523319602012634,0.1158999949693679,-3.762500047683716,-26.46000099182129,5.127500057220459
5.924884171874985,-0.1259039938449859,-0.9764879941940308,0.1327359974384308,-12.425000190734863,-21.489999771118164,6.230000019073486
5.945174871093735,-0.1478639990091323,-1.0528600215911863,0.1334680020809173,-16.309999465942383,-16.677499771118164,7.909999847412109
5.965465570312484,-0.1654319912195205,-1.0909240245819092,0.1505479961633682,-7.070000171661377,-13.05500030517578,7.822500228881836
5.985756269531234,-0.2413159906864166,-1.035048007965088,0.1839759945869445,6.352499961853027,-13.457500457763672,5.425000190734863
6.006046968749984,-0.3023159801959991,-0.9503799676895142,0.2122799903154373,12.862500190734863,-18.462499618530277,3.8324999809265137
6.0263376679687335,-0.2813319861888885,-0.9225639700889589,0.2220399975776672,7.822500228881836,-22.417499542236328,6.492499828338623
6.046628367187483,-0.2166720032691955,-0.9269559979438782,0.2476599961519241,3.4825000762939453,-22.190000534057617,9.1875
6.066919066406233,-0.157379999756813,-0.9454999566078186,0.2830399870872497,2.8350000381469727,-21.122499465942383,7.997499942779541
6.087209765624983,-0.1200480014085769,-0.920367956161499,0.269131988286972,2.1700000762939453,-21.03499984741211,3.0625
6.107500464843732,-0.0868639945983886,-0.8647359609603882,0.248879998922348,-0.0175000000745058,-19.354999542236328,-1.7675000429153442
6.127791164062482,-0.0914999991655349,-0.8222799897193909,0.2322880029678344,-4.182499885559082,-16.344999313354492,-5.127500057220459
6.148081863281232,-0.1232199966907501,-0.779092013835907,0.2408279925584793,-8.260000228881836,-12.827500343322754,-6.772500038146973
6.1683725624999814,-0.1559159904718399,-0.7812879681587219,0.2483920007944107,-15.119999885559082,-10.8149995803833,-8.732500076293945
6.188663261718731,-0.1812919974327087,-0.8313080072402954,0.261568009853363,-22.190000534057617,-10.8149995803833,-11.427499771118164
6.208953960937481,-0.1937360018491745,-0.8949919939041138,0.2854799926280975,-27.317501068115234,-10.989999771118164,-12.792500495910645
6.229244660156231,-0.2205759882926941,-0.9464759826660156,0.284991979598999,-30.450000762939453,-10.46500015258789,-12.005000114440918
6.24953535937498,-0.3174439966678619,-1.0418800115585327,0.1708000004291534,-34.82500076293945,-8.837499618530273,-7.909999847412109
6.26982605859373,-0.3340359926223755,-1.1963319778442385,0.1969079971313476,-36.68000030517578,-7.962500095367432,2.117500066757202
6.29011675781248,-0.3191519975662231,-1.2190239429473877,0.2183799892663955,-28.997499465942383,-9.327500343322754,8.732500076293945
6.310407457031229,-0.2571759819984436,-1.2121919393539429,0.1847079992294311,-12.600000381469728,-13.457500457763672,8.6274995803833
6.330698156249979,-0.2527839839458465,-1.232443928718567,0.1681160032749176,-0.1924999952316284,-14.9975004196167,16.69499969482422
6.350988855468729,-0.3774679899215698,-1.2634320259094238,0.085156001150608,-3.1675000190734863,-19.512500762939453,32.217498779296875
6.3712795546874785,-0.4218759834766388,-1.1145919561386108,0.1627479940652847,1.190000057220459,-33.38999938964844,38.83250045776367
6.391570253906228,-0.4108960032463074,-0.981611967086792,0.1920280009508133,9.712499618530272,-41.91249847412109,33.477500915527344
6.411860953124978,-0.3616079986095428,-0.7734799981117249,0.185928001999855,17.114999771118164,-46.34000015258789,21.997499465942383
6.432151652343728,-0.2586399912834167,-0.725167989730835,0.1036999970674514,9.239999771118164,-55.212501525878906,7.997499942779541
6.452442351562477,-0.2042279988527298,-0.7498120069503784,0.0043919999152421,1.2424999475479126,-62.19499969482422,-3.762500047683716
6.472733050781227,-0.1742160022258758,-0.8032479882240295,-0.0827159956097602,-9.0649995803833,-62.5625,-8.977499961853027
6.493023749999977,-0.1927599906921386,-1.0701839923858645,-0.0871080011129379,-24.97249984741211,-63.27999877929688,1.9075000286102293
6.5133144492187265,-0.1795839965343475,-1.0975120067596436,-0.0592919997870922,-13.037500381469728,-66.9375,6.579999923706055
6.533605148437476,-0.2047159969806671,-1.046272039413452,-0.0226919986307621,0.9275000095367432,-69.19499969482422,5.197500228881836
6.553895847656226,-0.20032399892807,-1.0089399814605713,0.0353799983859062,3.622499942779541,-74.05999755859375,0.5774999856948853
6.574186546874976,-0.2252119928598404,-1.0801880359649658,-0.0007319999858736,-1.9424999952316284,-75.72250366210938,-8.837499618530273
6.594477246093725,-0.2464399933815002,-1.002351999282837,-0.0683199986815452,-6.054999828338623,-79.23999786376953,-17.09749984741211
6.614767945312475,-0.2476599961519241,-1.051151990890503,-0.0771040022373199,-27.93000030517578,-84.4375,-14.90999984741211
6.635058644531225,-0.2191119939088821,-1.101904034614563,-0.0073199998587369,-29.27750015258789,-87.23750305175781,-13.982500076293944
6.6553493437499744,-0.1485960036516189,-1.077015995979309,0.0629519969224929,-12.897500038146973,-88.67250061035156,-17.045000076293945
6.675640042968724,-0.0551439970731735,-0.9823439717292786,0.0663679987192154,2.4674999713897705,-90.40499877929688,-20.3174991607666
6.695930742187474,-0.0151279997080564,-0.8874279856681824,0.0273279994726181,5.389999866485596,-88.4625015258789,-18.44499969482422
6.716221441406224,-0.0234239995479583,-0.8298439979553223,0.0165919996798038,-1.6100000143051147,-84.5425033569336,-13.6850004196167
6.736512140624973,-0.0553879998624324,-0.8073959946632385,0.0261080004274845,-14.175000190734863,-81.18250274658203,-7.699999809265137
6.756802839843723,-0.0636840015649795,-0.8496080040931702,0.052216000854969,-27.895000457763672,-78.57499694824219,-1.9075000286102293
6.777093539062473,-0.0573399998247623,-0.907435953617096,0.066611997783184,-36.78499984741211,-76.44000244140625,3.2725000381469727
6.797384238281222,-0.0573399998247623,-0.9906399846076964,0.052947998046875,-40.42499923706055,-74.18250274658203,8.837499618530273
6.817674937499972,-0.0444080010056495,-1.0306559801101685,0.0590479969978332,-34.334999084472656,-73.13249969482422,14.647500038146973
6.837965636718722,-0.0202520005404949,-1.0330959558486938,0.0873520001769065,-26.98500061035156,-72.15250396728516,18.00749969482422
6.8582563359374715,0.0197639986872673,-1.046272039413452,0.0839359983801841,-23.274999618530277,-71.69750213623047,18.51499938964844
6.878547035156221,0.0300120003521442,-1.018455982208252,0.0775920003652572,-15.662500381469728,-68.25,19.477500915527344
6.898837734374971,-0.0085399998351931,-0.9738039970397948,0.1268799901008606,-13.912500381469728,-63.682498931884766,20.5625
6.919128433593721,-0.0158599987626075,-1.015771985054016,0.110287994146347,-19.89750099182129,-62.82500076293945,20.667499542236328
6.93941913281247,0.0002439999952912,-0.9918599724769592,0.1271239966154098,-19.11000061035156,-60.602500915527344,19.162500381469727
6.95970983203122,-0.0461159981787204,-1.024799942970276,0.1324919909238815,-25.00749969482422,-63.50749969482422,17.412500381469727
6.98000053124997,-0.0534359999001026,-1.0313879251480105,0.1107759997248649,-24.43000030517578,-70.0875015258789,13.895000457763672
7.0002912304687195,-0.0644159987568855,-1.013819932937622,0.1134599968791008,-19.232500076293945,-69.37000274658203,11.392499923706056
7.020581929687469,-0.0695400014519691,-1.0067440271377563,0.1122400015592575,-14.980000495910645,-70.61250305175781,10.779999732971191
7.040872628906219,-0.0324519984424114,-1.0140639543533323,0.124439999461174,-8.260000228881836,-78.15499877929688,11.480000495910645
7.061163328124969,0.0224479995667934,-1.0299240350723269,0.0985759943723678,-1.6449999809265137,-83.6675033569336,12.28499984741211
7.081454027343718,-0.0007319999858736,-1.0025960206985474,0.0551439970731735,1.6100000143051147,-86.83499908447266,12.65250015258789
7.101744726562468,-0.1324919909238815,-0.994055986404419,-0.0968680009245872,-21.03499984741211,-91.59500122070312,11.375
7.122035425781218,-0.2857239842414856,-1.1184959411621094,-0.138835996389389,-33.28499984741211,-86.57250213623047,6.159999847412109
7.142326124999967,-0.3813720047473907,-1.1485079526901243,-0.0790559947490692,-31.377500534057617,-74.19999694824219,-1.924999952316284
7.162616824218717,-0.3050000071525574,-1.1977959871292114,-0.0478239990770816,-29.540000915527344,-73.4124984741211,-11.287500381469728
7.182907523437467,-0.2056919932365417,-1.1687599420547483,-0.1068719998002052,-14.175000190734863,-76.49250030517578,-14.454999923706056
7.203198222656217,-0.2052039951086044,-1.0455399751663208,-0.1395680010318756,1.627500057220459,-78.61000061035156,-4.497499942779541
7.223488921874966,-0.2893840074539184,-0.928663969039917,-0.1032119989395141,1.5924999713897705,-83.2125015258789,14.770000457763672
7.243779621093716,-0.4079679846763611,-0.8359439969062805,-0.0800319984555244,-0.3149999976158142,-91.20999908447266,32.11249923706055
7.264070320312466,-0.4782399833202362,-0.785923957824707,-0.057583998888731,-1.662500023841858,-101.04499816894533,40.810001373291016
7.284361019531215,-0.4577440023422241,-0.7319999933242798,-0.0056119998916983,-4.672500133514404,-106.88999938964844,43.24250030517578
7.304651718749965,-0.3977199792861938,-0.8215479850769043,0.0024399999529123,-17.184999465942383,-106.2249984741211,41.1775016784668
7.324942417968715,-0.3091479837894439,-0.87254399061203,0.0102479998022317,-16.747499465942383,-105.13999938964844,33.337501525878906
7.3452331171874645,-0.2071560025215149,-0.8147159814834595,0.0019519999623298,-10.675000190734863,-104.75499725341795,28.192501068115234
7.365523816406214,-0.1671399921178817,-0.8152039647102356,-0.0861319974064827,-16.362499237060547,-103.11000061035156,28.13999938964844
7.385814515624964,-0.1729959994554519,-0.8220359683036804,-0.1246839985251426,-26.0575008392334,-99.90750122070312,28.2450008392334
7.406105214843714,-0.2586399912834167,-0.8774240016937256,-0.0422119982540607,-46.51499938964844,-91.91000366210938,21.262500762939453
7.426395914062463,-0.3442839980125427,-1.108247995376587,0.0087839998304843,-70.03500366210938,-88.16500091552734,5.494999885559082
7.446686613281213,-0.4584759771823883,-1.173884034156799,0.0141519997268915,-59.81499862670898,-95.0250015258789,-5.355000019073486
7.466977312499963,-0.5297240018844604,-0.9991799592971802,-0.0014639999717473,-31.71000099182129,-109.65499877929688,-10.079999923706056
7.4872680117187125,-0.4333440065383911,-0.9428159594535828,0.003171999938786,-40.42499923706055,-119.50749969482422,1.1200000047683716
7.507558710937462,-0.322079986333847,-1.0565199851989746,0.0324519984424114,-48.685001373291016,-119.12249755859376,13.072500228881836
7.527849410156212,-0.3023159801959991,-1.0765279531478882,0.0151279997080564,-32.654998779296875,-119.80500030517578,14.279999732971191
7.548140109374962,-0.2710839807987213,-1.0784800052642822,-0.0082959998399019,-16.3799991607666,-118.28250122070312,14.210000038146973
7.568430808593711,-0.1683599948883056,-1.0582280158996582,0.0146399997174739,4.235000133514404,-109.65499877929688,10.8149995803833
7.588721507812461,-0.0861319974064827,-1.0177240371704102,0.0253759995102882,19.739999771118164,-101.37750244140624,5.897500038146973
7.609012207031211,-0.0261080004274845,-0.9720959663391112,0.0344039984047412,26.075000762939453,-94.5,-0.4550000131130218
7.62930290624996,-0.0561200007796287,-0.8864519596099854,0.0509959980845451,26.26749992370605,-84.48999786376953,-6.387499809265137
7.64959360546871,-0.0910120010375976,-0.8378959894180298,0.0607559978961944,15.890000343322754,-74.21749877929688,-8.942500114440918
7.66988430468746,-0.1222440004348754,-0.901091992855072,0.0531919971108436,-2.9574999809265137,-63.665000915527344,-5.914999961853027
7.69017500390621,-0.1434720009565353,-0.9694119691848756,0.0827159956097602,-17.395000457763672,-55.40499877929688,-3.569999933242798
7.710465703124959,-0.2727919816970825,-0.9659959673881532,0.0597799979150295,-16.327499389648438,-51.02999877929688,-12.897500038146973
7.730756402343709,-0.3342799842357635,-0.9354959726333618,0.046604000031948,-9.11750030517578,-48.720001220703125,-15.994999885559082
7.751047101562459,-0.3520919978618622,-0.9276880025863647,0.0453839972615242,-12.774999618530272,-45.08000183105469,-11.864999771118164
7.771337800781208,-0.3557519912719726,-0.9730719923973083,0.0722239986062049,-18.00749969482422,-45.41249847412109,-6.195000171661377
7.791628499999958,-0.3169559836387634,-0.9979599714279176,0.0824719965457916,-15.067500114440918,-50.24250030517578,-5.914999961853027
7.811919199218708,-0.2686440050601959,-1.0025960206985474,0.0407480001449584,-9.975000381469728,-54.040000915527344,-8.609999656677246
7.8322098984374575,-0.2095959931612014,-1.016503930091858,-0.0131759997457265,-8.557499885559082,-55.22999954223633,-9.432499885559082
7.852500597656207,-0.1664080023765564,-1.0016199350357056,-0.0317199975252151,-6.894999980926514,-54.407501220703125,-9.449999809265137
7.872791296874957,-0.1210239976644516,-0.9635559916496276,-0.0207399986684322,-6.002500057220459,-51.64250183105469,-10.13249969482422
7.893081996093707,-0.071492001414299,-0.990395963191986,-0.0265959985554218,-7.612500190734863,-44.72999954223633,-9.99250030517578
7.913372695312456,-0.0971119999885559,-0.9840520024299622,-0.0358680002391338,-6.474999904632568,-35.90999984741211,-10.86750030517578
7.933663394531206,-0.1341999918222427,-0.9698999524116516,-0.0317199975252151,-9.170000076293944,-30.677499771118164,-9.65999984741211
7.953954093749956,-0.1381039917469024,-0.9725840091705322,-0.0024399999529123,-10.587499618530272,-26.75749969482422,-9.135000228881836
7.9742447929687055,-0.1034559980034828,-0.9559919834136964,0.0422119982540607,-8.994999885559082,-22.5049991607666,-9.904999732971191
7.994535492187455,-0.0832040011882782,-0.9750239849090576,0.0710039958357811,-8.767499923706055,-18.864999771118164,-12.18000030517578
8.014826191406206,-0.066611997783184,-0.9708759784698486,0.0605119988322258,-3.009999990463257,-18.252500534057617,-18.67250061035156
8.035116890624955,-0.0585599988698959,-0.9162200093269348,0.0685639977455139,4.112500190734863,-18.00749969482422,-26.9325008392334
8.055407589843705,-0.0946719944477081,-0.90938800573349,0.0436760000884532,2.7300000190734863,-16.4325008392334,-30.83500099182129
8.075698289062455,-0.1229759976267814,-0.9437919855117798,0.0487999990582466,-2.502500057220459,-13.667500495910645,-29.9950008392334
8.095988988281205,-0.1417640000581741,-1.0150399208068848,0.037331998348236,-8.539999961853027,-10.02750015258789,-25.5674991607666
8.116279687499954,-0.1393239945173263,-1.0582280158996582,0.0451399981975555,-11.654999732971191,-7.595000267028809,-17.6924991607666
8.136570386718704,-0.143227994441986,-1.0892159938812256,0.0161039996892213,-10.359999656677246,-6.28249979019165,-9.800000190734863
8.156861085937454,-0.1539639979600906,-1.0543240308761597,0.0053679998964071,-4.637499809265137,-7.367499828338623,-4.829999923706055
8.177151785156203,-0.1324919909238815,-1.0411479473114014,0.0168359987437725,-4.619999885559082,-11.095000267028809,1.2599999904632568
8.197442484374953,-0.1007720008492469,-1.0265079736709597,0.0722239986062049,-6.317500114440918,-13.282500267028809,7.4375
8.217733183593703,-0.0536799989640712,-1.0216280221939087,0.1205359995365142,-8.260000228881836,-12.074999809265137,10.3774995803833
8.238023882812453,-0.0161039996892213,-1.0062559843063354,0.1537199914455413,-11.44499969482422,-8.907500267028809,6.264999866485596
8.258314582031202,0.0148839997127652,-1.038707971572876,0.148839995265007,-18.1299991607666,-8.837499618530273,-2.275000095367432
8.278605281249952,0.0222040005028247,-1.0821399688720703,0.1222440004348754,-17.482500076293945,-9.012499809265137,-10.86750030517578
8.298895980468702,0.0275719985365867,-1.0452959537506104,0.1093119978904724,-7.507500171661377,-8.539999961853027,-15.977499961853027
8.319186679687451,-0.0146399997174739,-0.9481839537620544,0.118827998638153,1.0850000381469729,-11.74250030517578,-12.984999656677246
8.339477378906201,-0.052216000854969,-0.9403759837150574,0.1085800006985664,-2.572499990463257,-12.670000076293944,-8.697500228881836
8.35976807812495,-0.0446520000696182,-0.9420839548110962,0.0875959992408752,-6.965000152587891,-11.88249969482422,-5.179999828338623
8.3800587773437,-0.0400159992277622,-0.9625799655914308,0.0807639956474304,-11.88249969482422,-11.654999732971191,-2.047499895095825
8.40034947656245,-0.0280600003898143,-1.0287039279937744,0.0863759964704513,-14.682499885559082,-12.512499809265137,0.0700000002980232
8.4206401757812,-0.0314759984612464,-1.0745760202407837,0.1063839942216873,-9.467499732971191,-12.949999809265137,1.0149999856948853
8.44093087499995,-0.0324519984424114,-1.075551986694336,0.0975999981164932,0.332500010728836,-14.052499771118164,0.5774999856948853
8.4612215742187,-0.0256199985742568,-1.0570080280303955,0.0753960013389587,10.885000228881836,-15.085000038146973,-0.4375
8.481512273437449,-0.0043919999152421,-1.019919991493225,0.0548999980092048,20.57999992370605,-13.947500228881836,0.2450000047683715
8.501802972656199,0.0087839998304843,-0.9679479598999025,0.0307439994066953,24.3075008392334,-9.730000495910645,2.7300000190734863
8.522093671874948,0.0224479995667934,-0.9413520097732544,0.0363559983670711,20.49250030517578,-7.087500095367432,5.460000038146973
8.542384371093698,0.0397720001637935,-0.9445239901542664,0.0412359982728958,14.105000495910645,-3.692500114440918,7.630000114440918
8.562675070312448,0.0322079993784427,-0.9559919834136964,0.0317199975252151,8.015000343322754,1.6100000143051147,9.15250015258789
8.582965769531198,0.0351359993219375,-0.9691680073738098,0.0302559994161129,3.920000076293945,5.880000114440918,9.730000495910645
8.603256468749947,0.028303999453783,-1.0062559843063354,0.0243999995291233,0.699999988079071,10.56999969482422,10.114999771118164
8.623547167968697,0.0114679997786879,-1.0230920314788818,0.028303999453783,1.9075000286102293,14.9975004196167,10.710000038146973
8.643837867187447,-0.0090279998257756,-1.0233359336853027,0.0239119995385408,4.235000133514404,17.885000228881836,11.34000015258789
8.664128566406196,-0.0353799983859062,-1.0313879251480105,0.0158599987626075,5.862500190734863,19.25,10.727499961853027
8.684419265624946,-0.0468479990959167,-1.0338280200958252,0.0065879998728632,8.119999885559082,18.76000022888184,10.324999809265137
8.704709964843696,-0.0539239980280399,-1.012355923652649,-0.0002439999952912,11.287500381469728,18.1825008392334,10.86750030517578
8.725000664062446,-0.0668559968471527,-0.98990797996521,-0.0017079999670386,11.095000267028809,17.395000457763672,12.109999656677246
8.745291363281195,-0.0888160020112991,-0.9996680021286012,-0.0285479985177516,7.262499809265137,16.502500534057617,13.265000343322754
8.765582062499945,-0.1129719987511634,-1.0040600299835205,-0.0397720001637935,5.985000133514404,15.697500228881836,13.15999984741211
8.785872761718695,-0.1363959908485412,-0.97599995136261,-0.0068319998681545,5.740000247955322,14.262499809265137,12.792500495910645
8.806163460937444,-0.1295640021562576,-1.0021079778671265,-0.0344039984047412,0.612500011920929,15.505000114440918,13.177499771118164
8.826454160156194,-0.1537199914455413,-1.0218719244003296,-0.0239119995385408,-1.715000033378601,15.38249969482422,12.547499656677246
8.846744859374944,-0.1842200011014938,-1.0067440271377563,-0.0058559998869895,1.2599999904632568,10.762499809265137,10.342499732971191
8.867035558593694,-0.2100839912891388,-0.9271999597549438,0.0390399992465972,8.172499656677246,6.422500133514404,10.552499771118164
8.887326257812443,-0.2205759882926941,-0.8796199560165405,0.0434319972991943,8.6274995803833,1.5225000381469729,13.947500228881836
8.907616957031193,-0.2393639981746673,-0.8491199612617493,0.0483120009303092,5.425000190734863,-2.5899999141693115,17.27250099182129
8.927907656249943,-0.2320439964532852,-0.9167079925537108,0.0090279998257756,-9.712499618530272,-0.4200000166893005,24.0625
8.948198355468692,-0.2520520091056824,-0.9833199977874756,0.0173240005970001,-18.40999984741211,0.5600000023841858,24.71000099182129
8.968489054687442,-0.2771840095520019,-1.0391960144042969,0.032940000295639,-21.979999542236328,-3.3424999713897705,22.90749931335449
8.988779753906192,-0.2923119962215423,-1.0589599609375,0.0531919971108436,-18.09499931335449,-7.4375,19.075000762939453
9.009070453124941,-0.2764520049095154,-1.0828720331192017,0.0558759979903698,-9.572500228881836,-10.517499923706056,12.407500267028809
9.029361152343691,-0.2398519963026046,-1.1060519218444824,0.0685639977455139,2.1524999141693115,-14.157500267028809,2.2225000858306885
9.049651851562441,-0.2098399996757507,-1.0540800094604492,0.0910120010375976,13.93000030517578,-16.1875,-7.4375
9.06994255078119,-0.1507920026779174,-0.9799039959907532,0.1127279996871948,16.747499465942383,-16.327499389648438,-12.845000267028809
9.09023324999994,-0.1007720008492469,-0.9206119775772096,0.1454239934682846,13.125,-13.789999961853027,-12.355000495910645
9.11052394921869,-0.0844239965081214,-0.9108519554138184,0.185928001999855,7.28000020980835,-10.09749984741211,-9.029999732971191
9.13081464843744,-0.1139479950070381,-0.9484279751777648,0.2193560004234314,2.747499942779541,-7.420000076293945,-6.247499942779541
9.15110534765619,-0.1668960005044937,-0.9691680073738098,0.2030079960823059,2.327500104904175,-4.777500152587891,-4.164999961853027
9.17139604687494,-0.2176479995250702,-0.9501360058784484,0.1725080013275146,2.5899999141693115,-1.9600000381469729,-0.2450000047683715
9.191686746093689,-0.2437559962272644,-0.9362279772758484,0.1705559939146042,-0.0350000001490116,-1.0325000286102295,4.392499923706055
9.211977445312439,-0.236191987991333,-0.9469639658927916,0.1664080023765564,-2.7300000190734863,-1.680000066757202,6.090000152587891
9.232268144531188,-0.2191119939088821,-0.974291980266571,0.1590880006551742,-3.867500066757202,-2.9749999046325684,4.585000038146973
9.252558843749938,-0.2039839923381805,-1.0091840028762815,0.1544519960880279,-3.3949999809265137,-3.377500057220459,2.2925000190734863
9.272849542968688,-0.1829999983310699,-1.0235799551010132,0.1507920026779174,-0.6299999952316284,-3.8324999809265137,0.332500010728836
9.293140242187437,-0.181779995560646,-1.0167479515075684,0.1405439972877502,2.1700000762939453,-4.514999866485596,-0.3675000071525574
9.313430941406187,-0.1905639916658401,-1.0145519971847534,0.1412760019302368,4.09499979019165,-3.972500085830689,-0.0700000002980232
9.333721640624937,-0.1747040003538131,-1.0140639543533323,0.1493279933929443,5.809999942779541,-3.150000095367432,0.612500011920929
9.354012339843687,-0.1661639958620071,-1.0086959600448608,0.1659199893474578,7.175000190734863,-1.837499976158142,2.0999999046325684
9.374303039062436,-0.1656759977340698,-0.9882000088691713,0.1744599938392639,9.869999885559082,-0.962499976158142,2.747499942779541
9.394593738281186,-0.1695799976587295,-0.961359977722168,0.1507920026779174,13.282500267028809,0.5600000023841858,1.399999976158142
9.414884437499936,-0.1761679947376251,-0.945743978023529,0.1376159936189651,14.80500030517578,1.0499999523162842,-0.7175000309944153
9.435175136718685,-0.1793399900197982,-0.954039990901947,0.1254159957170486,13.107500076293944,1.3825000524520874,-1.8200000524520876
9.455465835937435,-0.1795839965343475,-0.9855159521102904,0.119559995830059,10.237500190734863,1.8200000524520876,-1.1024999618530271
9.475756535156185,-0.1812919974327087,-0.9943000078201294,0.1383479982614517,10.552499771118164,1.75,-0.1574999988079071
9.496047234374934,-0.1947119981050491,-0.9884439706802368,0.1446920037269592,12.337499618530272,1.5049999952316284,0.699999988079071
9.516337933593684,-0.1991039961576461,-0.9713639616966248,0.1439599990844726,14.50749969482422,1.4350000619888306,0.962499976158142
9.536628632812434,-0.2005679905414581,-0.9403759837150574,0.1537199914455413,11.6899995803833,2.5199999809265137,1.680000066757202
9.556919332031184,-0.1883679926395416,-0.961847960948944,0.1766559928655624,8.645000457763672,4.760000228881836,2.1524999141693115
9.577210031249933,-0.1956879943609237,-0.9747799634933472,0.17323999106884,8.032500267028809,7.157500267028809,2.1875
9.597500730468683,-0.2034959942102432,-0.96453195810318,0.1720200031995773,8.34749984741211,8.3125,1.399999976158142
9.617791429687433,-0.2174039930105209,-0.946720004081726,0.177387997508049,7.962500095367432,8.102499961853027,0.9275000095367432
9.638082128906182,-0.2232600003480911,-0.933788001537323,0.1710439920425415,6.142499923706055,7.332499980926514,1.1375000476837158
9.658372828124932,-0.218868002295494,-0.9193919897079468,0.1839759945869445,4.269999980926514,6.019999980926514,1.2074999809265137
9.678663527343682,-0.218868002295494,-0.9179279804229736,0.185928001999855,1.5399999618530271,5.25,1.4700000286102295
9.698954226562432,-0.2134999930858612,-0.9284200072288512,0.183243989944458,-0.8224999904632568,4.130000114440918,1.7324999570846558
9.719244925781181,-0.2091079950332641,-0.9396439790725708,0.1834879964590072,-2.309999942779541,2.870000123977661,1.7324999570846558
9.739535624999931,-0.201787993311882,-0.945743978023529,0.1793399900197982,-2.887500047683716,1.5225000381469729,1.1725000143051147
9.75982632421868,-0.1869039982557296,-0.949891984462738,0.1908079981803894,-2.555000066757202,0.4025000035762787,0.3675000071525574
9.78011702343743,-0.1715319901704788,-0.9591639637947084,0.1993480026721954,-1.924999952316284,0.4025000035762787,-0.3675000071525574
9.80040772265618,-0.1578679978847503,-0.9606279730796814,0.2034959942102432,-0.7699999809265137,1.3650000095367432,-1.2074999809265137
9.82069842187493,-0.1605519950389862,-0.9562360048294068,0.2083759903907776,0.4900000095367431,2.9749999046325684,-2.6075000762939453
9.84098912109368,-0.1483519971370697,-0.9496479630470276,0.224480003118515,0.2975000143051147,5.197500228881836,-3.6575000286102295
9.86127982031243,-0.1383479982614517,-0.9389119744300842,0.2386319935321808,0.0700000002980232,8.085000038146973,-4.865000247955322
9.881570519531179,-0.1424959897994995,-0.9201239943504332,0.2378999888896942,-0.4200000166893005,10.220000267028809,-6.84250020980835
9.901861218749929,-0.147376000881195,-0.915731966495514,0.2315559983253479,-2.870000123977661,12.145000457763672,-8.1899995803833
9.922151917968678,-0.1500599980354309,-0.9027999639511108,0.2315559983253479,-5.284999847412109,14.297499656677246,-8.837499618530273
9.942442617187428,-0.1500599980354309,-0.9064599871635436,0.2400960028171539,-8.574999809265137,16.4325008392334,-9.082500457763672
9.962733316406178,-0.1564040035009384,-0.9113399982452391,0.2427799999713897,-10.114999771118164,18.5674991607666,-9.274999618530272
9.983024015624927,-0.1659199893474578,-0.9162200093269348,0.2457079887390136,-10.517499923706056,19.4950008392334,-10.02750015258789
10.003314714843677,-0.1876360028982162,-0.9162200093269348,0.2378999888896942,-10.517499923706056,19.84499931335449,-10.989999771118164
10.023605414062427,-0.2293599992990493,-0.9289079904556274,0.2137439996004104,-12.21500015258789,19.26749992370605,-10.90250015258789
10.043896113281177,-0.2418039888143539,-0.9745360016822816,0.2100839912891388,-14.927499771118164,18.707500457763672,-8.994999885559082
10.064186812499926,-0.2291159927845001,-1.0008879899978638,0.2293599992990493,-15.539999961853027,17.920000076293945,-6.474999904632568
10.084477511718676,-0.2215519994497299,-1.0021079778671265,0.2164279967546463,-14.770000457763672,17.342500686645508,-4.514999866485596
10.104768210937426,-0.2296039909124374,-1.0633519887924194,0.1617719978094101,-16.852500915527344,18.357500076293945,-0.7524999976158142
10.125058910156175,-0.260591983795166,-1.212435960769653,0.0822279974818229,-18.6200008392334,18.95249938964844,6.037499904632568
10.145349609374925,-0.3008520007133484,-1.2368359565734863,0.1349319964647293,8.855000495910645,8.452500343322754,24.43000030517578
10.165640308593675,-0.3125639855861664,-1.065303921699524,0.1317600011825561,24.02750015258789,2.327500104904175,30.012500762939453
10.185931007812425,-0.2637639939785003,-0.8913319706916809,0.1749479919672012,28.15749931335449,-0.1050000041723251,28.052499771118164
10.206221707031174,-0.2034959942102432,-0.7995879650115967,0.17323999106884,22.26000022888184,2.712500095367432,21.052499771118164
10.226512406249924,-0.1498159915208816,-0.7966600060462952,0.1405439972877502,15.119999885559082,5.827499866485596,8.8725004196167
10.246803105468674,-0.1324919909238815,-0.8735199570655823,0.0719799995422363,4.427500247955322,7.192500114440918,-4.042500019073486
10.267093804687423,-0.1705559939146042,-0.9601399898529052,0.0627079978585243,-6.597499847412109,5.775000095367432,-12.897500038146973
10.287384503906173,-0.2235039919614792,-1.0521279573440552,0.0353799983859062,-13.230000495910645,5.232500076293945,-16.502500534057617
10.307675203124923,-0.2632759809494018,-1.0550559759140017,0.0151279997080564,-10.395000457763672,2.870000123977661,-16.59000015258789
10.327965902343673,-0.2776719927787781,-1.042855978012085,-0.0007319999858736,-7.4375,0.4550000131130218,-14.03499984741211
10.348256601562422,-0.248879998922348,-1.0033279657363892,0.003171999938786,-0.4025000035762787,-2.0999999046325684,-13.579999923706056
10.368547300781172,-0.1839759945869445,-0.9808799624443054,-0.0012199999764561,5.914999961853027,-4.497499942779541,-15.890000343322754
10.388837999999922,-0.1183400005102157,-0.9469639658927916,-0.0129319997504353,11.375,-3.8324999809265137,-21.122499465942383
10.409128699218671,-0.0670999959111213,-0.9472079873085022,-0.052947998046875,10.114999771118164,-2.6075000762939453,-26.302499771118164
10.429419398437421,-0.0392839983105659,-0.9454999566078186,-0.0414799973368644,6.772500038146973,-1.5750000476837158,-27.790000915527344
10.44971009765617,-0.052947998046875,-0.9513559937477112,-0.0339160002768039,2.0999999046325684,1.4874999523162842,-23.64249992370605
10.47000079687492,-0.0966240018606185,-0.9698999524116516,0.0092719998210668,1.0674999952316284,7.4375,-18.23500061035156
10.49029149609367,-0.1412760019302368,-0.9686799645423888,0.0827159956097602,1.0850000381469729,8.855000495910645,-15.78499984741211
10.51058219531242,-0.177387997508049,-1.038219928741455,0.1163880005478859,-4.760000228881836,3.6050000190734863,-18.1299991607666
10.53087289453117,-0.1586000025272369,-1.105563998222351,0.0973559990525245,-1.924999952316284,-3.202500104904175,-23.467500686645508
10.55116359374992,-0.1354199945926666,-1.1094679832458496,0.0646599978208541,9.607500076293944,-5.985000133514404,-28.36750030517578
10.571454292968669,-0.0978439971804618,-1.039440035820007,0.052216000854969,20.177499771118164,-8.295000076293945,-30.957500457763672
10.591744992187419,-0.0531919971108436,-0.9523319602012634,0.0558759979903698,22.977500915527344,-10.0625,-29.102500915527344
10.612035691406168,-0.0156159996986389,-0.8971880078315735,0.0739319995045661,17.3075008392334,-9.712499618530272,-25.549999237060547
10.632326390624918,-0.0141519997268915,-0.8525359630584717,0.0739319995045661,8.942500114440918,-6.177500247955322,-22.5049991607666
10.652617089843668,-0.0168359987437725,-0.8591240048408508,0.0661239996552467,-2.240000009536743,-2.6600000858306885,-20.26499938964844
10.672907789062418,-0.0187879987061023,-0.8874279856681824,0.075883999466896,-11.30500030517578,-1.2599999904632568,-17.885000228881836
10.693198488281167,-0.0295239984989166,-0.9515999555587769,0.0910120010375976,-17.53499984741211,-0.7875000238418579,-14.980000495910645
10.713489187499917,-0.0436760000884532,-0.9999119639396667,0.1100439950823783,-17.90250015258789,-1.9075000286102293,-12.197500228881836
10.733779886718667,-0.0524599999189376,-1.0265079736709597,0.1176079958677291,-13.982500076293944,-4.707499980926514,-9.904999732971191
10.754070585937416,-0.023667998611927,-0.9984479546546936,0.1073599979281425,0.1924999952316284,-8.085000038146973,-2.450000047683716
10.774361285156166,-0.0114679997786879,-0.957211971282959,0.1202920004725456,3.4124999046325684,-7.612500190734863,3.307500123977661
10.794651984374916,-0.0295239984989166,-0.9511119723320008,0.1446920037269592,0.6650000214576721,-9.22249984741211,7.822500228881836
10.814942683593666,-0.0375759974122047,-0.9476959705352784,0.181779995560646,-2.257499933242798,-11.654999732971191,9.572500228881836
10.835233382812415,-0.0487999990582466,-0.9716079831123352,0.1705559939146042,-5.670000076293945,-10.587499618530272,9.904999732971191
10.855524082031165,-0.0412359982728958,-0.9901520013809204,0.1629920005798339,-5.442500114440918,-10.517499923706056,9.0649995803833
10.875814781249915,-0.0126879997551441,-1.0028399229049685,0.1341999918222427,-3.4825000762939453,-11.375,9.362500190734863
10.896105480468664,0.0009759999811649,-0.9972279667854308,0.1132159978151321,-0.5425000190734863,-11.637499809265137,10.3774995803833
10.916396179687414,-0.0090279998257756,-0.9725840091705322,0.1219999939203262,1.75,-14.36750030517578,10.13249969482422
10.936686878906164,-0.0297679994255304,-0.9635559916496276,0.1551840007305145,2.677500009536743,-18.74250030517578,8.907500267028809
10.956977578124913,-0.0356239974498748,-0.9506239891052246,0.1851959973573684,2.852499961853028,-22.575000762939453,7.630000114440918
10.977268277343663,-0.0346480011940002,-0.9518439769744872,0.2117919921875,0.5249999761581421,-24.762500762939453,7.945000171661377
10.997558976562413,-0.0078079998493194,-0.9469639658927916,0.2069119960069656,-2.309999942779541,-26.302499771118164,11.147500038146973
11.017849675781163,0.0341599993407726,-0.90475195646286,0.1903200000524521,-6.212500095367432,-26.862499237060547,16.537500381469727
11.038140374999912,0.0697840005159378,-0.9367159605026244,0.1605519950389862,-16.15250015258789,-24.56999969482422,22.5575008392334
11.058431074218662,0.0619760006666183,-1.0104039907455444,0.1571359932422638,-25.707500457763672,-20.825000762939453,26.4424991607666
11.078721773437412,0.0492879971861839,-1.0850679874420166,0.1695799976587295,-28.15749931335449,-19.61750030517578,26.72249984741211
11.099012472656161,0.0314759984612464,-1.1270359754562378,0.171775996685028,-22.575000762939453,-18.58500099182129,24.622499465942383
11.119303171874911,0.0131759997457265,-1.1094679832458496,0.1564040035009384,-14.80500030517578,-16.25749969482422,21.2450008392334
11.13959387109366,-0.038307998329401,-1.1175199747085571,0.1022359952330589,-12.704999923706056,-15.032500267028809,17.657499313354492
11.15988457031241,-0.1373720020055771,-1.1389919519424438,0.1115079969167709,-11.164999961853027,-15.329999923706056,13.107500076293944
11.18017526953116,-0.1100439950823783,-1.2246359586715698,0.0668559968471527,-16.729999542236328,-16.975000381469727,3.9375
11.20046596874991,-0.0173240005970001,-1.3532239198684692,-0.0439199991524219,-22.645000457763672,-8.539999961853027,-12.967499732971191
11.22075666796866,-0.0727119967341423,-1.3332159519195557,-0.0631959959864616,-9.029999732971191,4.900000095367432,-28.03499984741211
11.24104736718741,-0.076615996658802,-1.161195993423462,-0.1217559948563575,8.71500015258789,10.359999656677246,-26.582500457763672
11.261338066406159,-0.0644159987568855,-1.0357799530029297,-0.0656360015273094,12.390000343322754,9.484999656677246,-11.637499809265137
11.281628765624909,-0.1166319996118545,-0.9462319612503052,-0.0302559994161129,20.52750015258789,-0.612500011920929,1.9075000286102293
11.301919464843659,-0.1976400017738342,-0.8539999723434448,-0.0295239984989166,36.76750183105469,-6.912499904632568,11.619999885559082
11.322210164062408,-0.2442439943552017,-0.7644519805908203,-0.0585599988698959,47.18000030517578,-0.699999988079071,18.270000457763672
11.342500863281158,-0.218868002295494,-0.6866160035133362,-0.0912560001015663,44.25749969482422,10.640000343322754,19.424999237060547
11.362791562499908,-0.1427399963140487,-0.7908039689064026,-0.1146799996495246,-7.385000228881836,28.38500022888184,11.077500343322754
11.383082261718657,-0.1703120023012161,-0.949891984462738,-0.0585599988698959,-28.770000457763672,28.332500457763672,4.235000133514404
11.403372960937407,-0.218868002295494,-1.0950720310211182,0.0173240005970001,-32.51499938964844,21.542499542236328,2.275000095367432
11.423663660156157,-0.2466839998960495,-1.189255952835083,0.0956479981541633,-17.6924991607666,19.0049991607666,5.827499866485596
11.443954359374906,-0.253028005361557,-1.2212200164794922,0.0829599946737289,2.7300000190734863,21.03499984741211,6.037499904632568
11.464245058593656,-0.2476599961519241,-1.2185360193252563,0.0324519984424114,18.795000076293945,20.247499465942383,7.997499942779541
11.484535757812406,-0.2313119918107986,-1.0926319360733032,0.0405040010809898,34.82500076293945,16.99250030517578,9.029999732971191
11.504826457031156,-0.2047159969806671,-0.9152439832687378,0.0692960023880004,37.99250030517578,19.38999938964844,10.850000381469728
11.525117156249905,-0.1988599896430969,-0.8317959904670715,0.0451399981975555,29.540000915527344,25.252500534057617,13.300000190734863
11.545407855468655,-0.1844639927148819,-0.8166679739952087,0.0385520011186599,20.63249969482422,27.177499771118164,13.737500190734863
11.565698554687405,-0.1930039972066879,-0.8086159825325012,0.0570959970355033,14.664999961853027,27.63249969482422,12.31999969482422
11.585989253906154,-0.2054480016231537,-0.790071964263916,0.076615996658802,7.682499885559082,28.332500457763672,10.605000495910645
11.606279953124904,-0.2357039898633957,-0.8093479871749878,0.0880839973688125,-2.240000009536743,29.364999771118164,9.047499656677246
11.626570652343654,-0.2723039984703064,-0.8581479787826538,0.0978439971804618,-11.9350004196167,29.434999465942383,7.71750020980835
11.646861351562404,-0.2713280022144317,-0.9237839579582214,0.1007720008492469,-17.832500457763672,27.86000061035156,5.704999923706055
11.667152050781153,-0.2503440082073211,-0.977952003479004,0.0956479981541633,-18.690000534057617,24.6924991607666,2.275000095367432
11.687442749999903,-0.2405840009450912,-1.0140639543533323,0.0841799974441528,-17.604999542236328,22.155000686645508,-0.0525000020861625
11.707733449218653,-0.2727919816970825,-1.0118680000305176,0.0361119993031024,-13.265000343322754,21.01749992370605,-1.680000066757202
11.728024148437402,-0.3003639876842499,-1.0379760265350342,0.0385520011186599,-11.88249969482422,17.184999465942383,-0.4025000035762787
11.748314847656152,-0.2681559920310974,-1.0579839944839478,0.0922319963574409,-6.965000152587891,12.862500190734863,2.450000047683716
11.768605546874902,-0.2139879912137985,-1.0513960123062134,0.1266359984874725,-1.5225000381469729,12.704999923706056,5.337500095367432
11.788896246093651,-0.1581119894981384,-1.0084519386291504,0.1185839995741844,4.829999923706055,16.3799991607666,7.420000076293945
11.809186945312401,-0.0975999981164932,-0.9081679582595824,0.1017479971051216,8.225000381469727,20.86000061035156,7.192500114440918
11.829477644531151,-0.105163998901844,-0.8342359662055969,0.1083360016345977,2.9049999713897705,25.270000457763672,5.057499885559082
11.8497683437499,-0.1512800008058548,-0.8298439979553223,0.1097999960184097,-6.545000076293945,29.96000099182129,1.680000066757202
11.87005904296865,-0.234484001994133,-0.8893799781799316,0.0651479959487915,-15.68000030517578,33.040000915527344,-2.432500123977661
11.8903497421874,-0.2479040026664734,-0.9330559968948364,0.0173240005970001,-23.625,31.045000076293945,-4.375
11.91064044140615,-0.2454639971256256,-1.013819932937622,0.0041479999199509,-28.15749931335449,25.707500457763672,-6.667500019073486
11.9309311406249,-0.2152079939842224,-1.0684759616851809,0.0092719998210668,-25.549999237060547,21.0,-5.512499809265137
11.95122183984365,-0.1978839933872223,-1.0814080238342283,0.0226919986307621,-20.020000457763672,21.420000076293945,-0.1574999988079071
11.971512539062399,-0.17323999106884,-1.010159969329834,-0.0407480001449584,-6.457499980926514,20.475000381469727,1.2599999904632568
11.991803238281149,-0.1727519929409027,-0.9579439759254456,-0.0422119982540607,-2.362499952316284,17.5,-2.484999895095825
12.012093937499898,-0.1742160022258758,-0.9569680094718932,-0.0424560010433197,-3.5174999237060547,18.30500030517578,-6.5625
12.032384636718648,-0.177387997508049,-1.0055240392684937,-0.0705159977078437,-6.352499961853027,21.6299991607666,-8.78499984741211
12.052675335937398,-0.1983719915151596,-1.0618879795074463,-0.0805199965834617,-7.420000076293945,23.292499542236328,-8.574999809265137
12.072966035156147,-0.1981279999017715,-1.071892023086548,-0.066611997783184,-4.865000247955322,23.34499931335449,-5.740000247955322
12.093256734374897,-0.1700679957866668,-1.028216004371643,-0.033671997487545,1.3125,23.415000915527344,-3.5350000858306885
12.113547433593647,-0.1468880027532577,-0.9691680073738098,-0.0319640003144741,6.230000019073486,24.01000022888184,-3.569999933242798
12.133838132812397,-0.1295640021562576,-0.9206119775772096,-0.0644159987568855,7.0,25.059999465942383,-4.707499980926514
12.154128832031146,-0.1320039927959442,-0.8898679614067078,-0.0802759975194931,3.289999961853028,26.4950008392334,-5.074999809265137
12.174419531249896,-0.1471319943666458,-0.8986519575119019,-0.0685639977455139,-3.692500114440918,27.649999618530277,-4.53249979019165
12.194710230468646,-0.1559159904718399,-0.9350079894065856,-0.0514839999377727,-8.172499656677246,29.17250061035156,-4.007500171661377
12.215000929687395,-0.1446920037269592,-0.948915958404541,-0.0507519990205764,-7.542500019073486,31.01000022888184,-4.21750020980835
12.235291628906145,-0.1493279933929443,-0.9313479661941528,-0.0595359988510608,-5.110000133514404,31.692501068115234,-4.550000190734863
12.255582328124895,-0.1461559981107711,-0.9064599871635436,-0.0548999980092048,-4.235000133514404,29.802499771118164,-5.215000152587891
12.275873027343644,-0.1686040014028549,-0.8803519606590271,-0.0302559994161129,-7.315000057220459,27.247499465942383,-5.460000038146973
12.296163726562394,-0.201787993311882,-0.8920639753341675,-0.0139079997316002,-12.1274995803833,25.549999237060547,-6.335000038146973
12.316454425781144,-0.2008119970560073,-0.9472079873085022,-0.0173240005970001,-17.149999618530273,24.01000022888184,-5.09250020980835
12.336745124999894,-0.1910519897937774,-1.006011962890625,-0.0312319993972778,-18.655000686645508,22.24250030517578,-1.662500023841858
12.357035824218643,-0.1822679936885833,-1.0272400379180908,-0.0392839983105659,-16.1875,20.247499465942383,1.715000033378601
12.377326523437393,-0.1900759935379028,-1.0062559843063354,-0.0485559999942779,-11.550000190734863,18.217500686645508,3.4124999046325684
12.397617222656143,-0.1847079992294311,-0.9882000088691713,-0.0456280000507831,-11.427499771118164,15.942500114440918,4.112500190734863
12.417907921874892,-0.1500599980354309,-1.0057679414749146,-0.0463600009679794,-15.399999618530272,14.682499885559082,5.302500247955322
12.438198621093642,-0.1310279965400695,-1.0025960206985474,-0.037331998348236,-16.55500030517578,15.329999923706056,5.512499809265137
12.458489320312392,-0.1349319964647293,-0.9901520013809204,-0.0290360003709793,-15.329999923706056,15.994999885559082,3.587500095367432
12.478780019531142,-0.1378600001335144,-0.9725840091705322,-0.0256199985742568,-13.440000534057615,15.592499732971191,0.6825000047683716
12.499070718749891,-0.1454239934682846,-0.9608719944953918,-0.0185439996421337,-13.125,14.80500030517578,-1.399999976158142
12.519361417968641,-0.1415199935436248,-0.9569680094718932,-0.010491999797523,-15.38249969482422,13.59749984741211,-2.345000028610229
12.53965211718739,-0.1251720041036605,-0.9767319560050964,-0.0024399999529123,-17.86750030517578,12.355000495910645,-2.0299999713897705
12.55994281640614,-0.1134599968791008,-0.97843998670578,0.0007319999858736,-16.415000915527344,11.917500495910645,-1.2424999475479126
12.58023351562489,-0.1217559948563575,-0.9247599840164183,-0.009515999816358,-12.31999969482422,10.46500015258789,-0.8575000166893005
12.60052421484364,-0.1273680031299591,-0.9054839611053468,-0.0117119997739791,-15.172499656677246,9.22249984741211,-0.6825000047683716
12.62081491406239,-0.1295640021562576,-0.9215880036354064,-0.006343999877572,-21.875,8.697500228881836,-0.332500010728836
12.64110561328114,-0.1154119968414306,-0.9515999555587769,-0.0100039998069405,-26.600000381469727,8.329999923706055,-0.4025000035762787
12.661396312499889,-0.1061399951577186,-0.9555040001869202,-0.0190319996327161,-26.19750022888184,8.137499809265137,-1.5575000047683716
12.681687011718639,-0.0993079990148544,-0.9386679530143738,-0.0346480011940002,-24.44750022888184,8.067500114440918,-2.6075000762939453
12.701977710937388,-0.0880839973688125,-0.9149999618530272,-0.0553879998624324,-23.8174991607666,8.837499618530273,-2.6424999237060547
12.722268410156138,-0.0744199976325035,-0.8815720081329346,-0.0717360004782676,-24.780000686645508,10.587499618530272,-2.2225000858306885
12.742559109374888,-0.0570959970355033,-0.8686400055885315,-0.0732000023126602,-28.38500022888184,12.897500038146973,-1.8025000095367432
12.762849808593637,-0.0395279973745346,-0.8708359599113464,-0.0810080021619796,-32.462501525878906,17.13249969482422,-1.277500033378601
12.783140507812387,-0.0317199975252151,-0.8825479745864868,-0.0749079957604408,-35.279998779296875,22.76749992370605,-0.6299999952316284
12.803431207031137,-0.0353799983859062,-0.8901119828224182,-0.0700279995799064,-35.314998626708984,27.405000686645508,-0.2975000143051147
12.823721906249887,-0.0422119982540607,-0.8888919949531555,-0.1029679998755455,-33.442501068115234,31.65749931335449,-0.875
12.844012605468636,-0.0700279995799064,-0.8549759984016418,-0.1185839995741844,-30.8700008392334,33.72249984741211,-2.782500028610229
12.864303304687386,-0.1117519959807396,-0.8232559561729431,-0.1198039948940277,-29.96000099182129,32.70750045776367,-3.867500066757202
12.884594003906136,-0.1578679978847503,-0.8122760057449341,-0.0849120020866394,-32.724998474121094,30.747499465942383,-4.619999885559082
12.904884703124885,-0.1705559939146042,-0.8256959915161133,-0.065880000591278,-37.55500030517578,27.895000457763672,-4.987500190734863
12.925175402343635,-0.1903200000524521,-0.8200839757919312,-0.0317199975252151,-39.40999984741211,22.32999992370605,-3.990000009536743
12.945466101562385,-0.240339994430542,-0.815447986125946,0.0153719997033476,-36.71500015258789,11.515000343322754,-5.862500190734863
12.965756800781135,-0.1705559939146042,-0.770796000957489,-0.0165919996798038,-36.73250198364258,3.0799999237060547,-11.287500381469728
12.986047499999884,-0.0719799995422363,-0.7829959988594055,-0.047580000013113,-43.85499954223633,5.425000190734863,-13.649999618530272
13.006338199218634,-0.0348920002579689,-0.80349200963974,-0.0070759998634457,-44.625,4.480000019073486,-13.510000228881836
13.026628898437384,-0.0339160002768039,-0.7500559687614441,-0.0080519998446106,-44.6775016784668,-6.510000228881836,-16.11750030517578
13.046919597656133,-0.0929640009999275,-0.6561160087585449,-0.0380639992654323,-49.122501373291016,-13.842499732971191,-16.747499465942383
13.067210296874883,-0.153231993317604,-0.6097559928894043,-0.0124439997598528,-56.38500213623047,-16.712499618530273,-12.827500343322754
13.087500996093633,-0.1293199956417083,-0.5797439813613892,0.0107359997928142,-63.192501068115234,-21.73500061035156,-5.897500038146973
13.107791695312383,-0.1137039959430694,-0.5521720051765442,0.0439199991524219,-67.4625015258789,-25.07749938964844,2.765000104904175
13.128082394531132,-0.0797879993915557,-0.4367599785327911,0.0634399950504303,-68.42500305175781,-29.067501068115234,11.567500114440918
13.148373093749882,-0.0446520000696182,-0.3093920052051544,-0.1324919909238815,-85.6624984741211,-23.747499465942383,20.28249931335449
13.168663792968632,0.0461159981787204,-0.2708399891853332,-0.2386319935321808,-111.54499816894533,-4.987500190734863,29.942501068115234
13.188954492187381,0.3028039932250976,-0.334767997264862,-0.3494080007076263,-148.71499633789062,30.625,40.14500045776367
13.209245191406131,0.2239919900894165,-0.3984519839286804,-0.4533520042896271,-164.7624969482422,60.147499084472656,36.68000030517578
13.22953589062488,0.119559995830059,-0.3386719822883606,-0.3828359842300415,-163.67750549316406,77.31500244140625,26.145000457763672
13.24982658984363,0.0956479981541633,-0.2701079845428467,-0.3240320086479187,-174.61500549316406,73.0625,7.490000247955322
13.27011728906238,0.0497759990394115,-0.2496119886636734,-0.2869440019130707,-206.7975006103516,77.82250213623047,9.345000267028809
13.29040798828113,-0.7493239641189575,1.0857999324798584,-3.2076239585876465,-317.45001220703125,57.75,68.75749969482422
13.31069868749988,0.5692520141601562,0.148839995265007,0.196175992488861,-309.8724975585937,49.80500030517578,77.3499984741211
13.33098938671863,-0.0014639999717473,0.1883679926395416,-1.831463932991028,-239.10250854492188,151.33999633789062,11.217499732971191
13.351280085937379,0.1949559897184372,0.2686440050601959,-2.1364638805389404,-204.87249755859372,114.7125015258789,12.390000343322754
13.371570785156129,-0.6573359966278076,0.4992239773273468,-2.8418679237365723,-244.4750061035156,81.83000183105469,14.175000190734863
13.391861484374878,-0.998203992843628,0.3930839896202087,-3.323279857635498,-269.9375,21.122499465942383,14.647500038146973
13.412152183593628,0.0036599999293684,-0.0514839999377727,-3.2473959922790527,-254.9575042724609,-24.045000076293945,13.737500190734863
13.432442882812378,0.0441639982163906,0.0002439999952912,-3.2893638610839844,-265.3525085449219,-16.309999465942383,7.157500267028809
13.452733582031128,-0.0163480006158351,0.4540839791297912,-2.875051975250244,-315.4549865722656,12.022500038146973,-5.355000019073486
13.473024281249877,-0.5206959843635559,-0.8281359672546387,-2.530524015426636,-288.802490234375,-19.040000915527344,76.6500015258789
13.493314980468627,-0.0124439997598528,-0.0053679998964071,-1.7443559169769287,-91.73500061035156,-41.352500915527344,39.54999923706055
13.513605679687377,0.1607960015535354,0.6075599789619446,-1.0416359901428225,37.92250061035156,-23.8700008392334,3.745000123977661
13.533896378906126,-0.0075639998540282,0.5877959728240967,-0.6295199990272522,44.88750076293945,-16.344999313354492,-0.4375
13.554187078124876,0.1581119894981384,0.651479959487915,-0.508251965045929,11.725000381469728,-17.149999618530273,2.432500123977661
13.574477777343626,0.2313119918107986,0.6527000069618225,-0.6024360060691833,1.8725000619888303,-18.14750099182129,21.104999542236328
13.594768476562376,0.2720600068569183,0.4567679762840271,-0.5316759943962097,-0.9975000023841858,-18.40999984741211,23.170000076293945
13.615059175781125,0.249123990535736,0.1895879954099655,-0.4784840047359466,-16.502500534057617,-37.415000915527344,19.565000534057617
13.635349874999875,0.1930039972066879,0.0495319999754428,-0.4257799983024597,-9.537500381469728,-18.864999771118164,14.980000495910645
13.655640574218625,0.1659199893474578,0.124439999461174,-0.2039839923381805,9.537500381469728,-7.682499885559082,6.860000133514404
13.675931273437374,0.1693359911441803,0.2710839807987213,-0.1395680010318756,14.315000534057615,-3.0274999141693115,1.6974999904632568
13.696221972656124,0.0917439982295036,0.4745799899101257,-0.2220399975776672,16.607500076293945,1.995000004768372,4.147500038146973
13.716512671874874,0.0548999980092048,0.757375955581665,-0.3501400053501129,1.4350000619888306,-1.5049999952316284,6.422500133514404
13.736803371093623,0.0139079997316002,0.8342359662055969,-0.4311479926109314,1.2424999475479126,17.27250099182129,9.1875
13.757094070312373,0.0390399992465972,0.7715280055999756,-0.4184599816799164,-1.5924999713897705,23.415000915527344,9.292500495910645
13.777384769531123,-0.1417640000581741,-0.0309880003333091,-0.5773040056228638,13.859999656677246,16.047500610351562,9.69499969482422
13.797675468749873,-0.0153719997033476,0.3577039837837219,-0.8515599966049194,40.3025016784668,9.712499618530272,1.8899999856948853
13.817966167968622,-0.0527039989829063,0.5665680170059204,-0.8998720049858093,39.11249923706055,-0.332500010728836,1.784999966621399
13.838256867187372,0.010491999797523,0.7051599621772766,-1.0104039907455444,45.622501373291016,-0.5425000190734863,4.987500190734863
13.858547566406122,0.0431879982352256,0.8493639826774597,-1.142408013343811,34.5625,10.482500076293944,8.855000495910645
13.878838265624871,-0.0161039996892213,0.855463981628418,-1.254159927368164,15.207500457763672,13.457500457763672,8.329999923706055
13.899128964843621,-0.1266359984874725,0.9025560021400452,-1.3300440311431885,-6.212500095367432,5.757500171661377,0.1749999970197677
13.91941966406237,0.0278159994632005,0.7024759650230408,-1.4008039236068726,-20.96500015258789,-3.815000057220459,-7.909999847412109
13.93971036328112,0.0910120010375976,0.3935720026493072,-1.3978760242462158,-12.774999618530272,-8.662500381469727,3.202500104904175
13.96000106249987,0.1056519970297813,0.5180119872093201,-1.232200026512146,-0.4025000035762787,-11.4975004196167,8.890000343322754
13.98029176171862,-0.0043919999152421,0.261568009853363,-1.1214239597320557,-1.75,-13.037500381469728,9.520000457763672
14.00058246093737,-0.0590479969978332,0.0805199965834617,-1.0084519386291504,-5.652500152587891,-19.774999618530277,3.587500095367432
14.02087316015612,-0.1129719987511634,0.157379999756813,-0.8776679635047913,-11.637499809265137,-24.20249938964844,-5.477499961853027
14.041163859374869,-0.1124840006232261,0.2735239863395691,-0.8625400066375732,-18.690000534057617,-26.31999969482422,-8.505000114440918
14.061454558593619,-0.0753960013389587,0.297435998916626,-0.8474119901657104,-19.809999465942383,-30.25749969482422,-5.372499942779541
14.081745257812369,-0.0753960013389587,0.3542879819869995,-0.831063985824585,-13.93000030517578,-34.45750045776367,-3.5
14.102035957031118,-0.1068719998002052,0.3516039848327636,-0.8208159804344177,-6.877500057220459,-37.20500183105469,-3.920000076293945
14.122326656249868,-0.0814960002899169,0.2942639887332916,-0.8300879597663879,-1.225000023841858,-35.997501373291016,-4.077499866485596
14.142617355468618,-0.0409919992089271,0.2144759893417358,-0.8410679697990417,2.1524999141693115,-31.815000534057617,-4.077499866485596
14.162908054687367,-0.0734440013766288,0.1176079958677291,-0.8488759994506836,3.430000066757202,-28.630001068115234,-5.389999866485596
14.183198753906117,-0.1273680031299591,0.1542080044746399,-0.8503400087356567,4.550000190734863,-28.01749992370605,-7.542500019073486
14.203489453124867,-0.1603080034255981,0.2505879998207092,-0.8535119891166687,6.369999885559082,-29.17250061035156,-9.957500457763672
14.223780152343616,-0.1620160043239593,0.3811279833316803,-0.8903560042381287,8.364999771118164,-30.55500030517578,-12.897500038146973
14.244070851562366,-0.1649439930915832,0.2884079813957214,-0.9596520066261292,11.6899995803833,-32.7599983215332,-12.267499923706056
14.264361550781116,-0.1915400028228759,0.2842600047588348,-0.9574559926986694,14.4375,-33.6875,-8.487500190734863
14.284652249999866,-0.2083759903907776,0.2583959996700287,-0.948915958404541,13.96500015258789,-31.79750061035156,-6.84250020980835
14.304942949218615,-0.2144759893417358,0.2876760065555572,-0.9408639669418336,9.397500038146973,-28.770000457763672,-4.269999980926514
14.325233648437365,-0.2181359976530075,0.3111000061035156,-0.9537959694862366,1.995000004768372,-25.934999465942383,-1.924999952316284
14.345524347656115,-0.2144759893417358,0.3101239800453186,-0.9706319570541382,-5.512499809265137,-23.415000915527344,-0.5950000286102295
14.365815046874864,-0.2310680001974105,0.3120760023593902,-0.9686799645423888,-10.237500190734863,-20.440000534057617,-0.0874999985098838
14.386105746093614,-0.2513200044631958,0.3250080049037933,-0.9635559916496276,-11.707500457763672,-17.342500686645508,-0.1749999970197677
14.406396445312364,-0.2618120014667511,0.334767997264862,-0.9284200072288512,-6.107500076293945,-11.40999984741211,-1.4350000619888306
14.426687144531114,-0.2542479932308197,0.2971920073032379,-0.896943986415863,-1.277500033378601,-8.539999961853027,-2.309999942779541
14.446977843749863,-0.253271996974945,0.2786479890346527,-0.8676639795303345,3.2725000381469727,-5.949999809265137,-2.694999933242798
14.467268542968613,-0.2422920018434524,0.297679990530014,-0.8510719537734985,6.230000019073486,-3.745000123977661,-2.782500028610229
14.487559242187363,-0.2308239936828613,0.317931979894638,-0.8488759994506836,7.28000020980835,-1.8899999856948853,-2.380000114440918
14.507849941406112,-0.23887600004673,0.3215920031070709,-0.8583920001983643,6.982500076293945,-0.4724999964237213,-1.9600000381469729
14.528140640624862,-0.2452199906110763,0.3201279938220978,-0.8776679635047913,5.372499942779541,0.7524999976158142,-1.2949999570846558
14.548431339843612,-0.2427799999713897,0.3164680004119873,-0.895967960357666,2.922499895095825,2.712500095367432,-0.3499999940395355
14.568722039062362,-0.2435119897127151,0.3123199939727783,-0.9040200114250184,0.3675000071525574,4.147500038146973,0.2450000047683715
14.589012738281111,-0.2408279925584793,0.3106119930744171,-0.9081679582595824,-2.047499895095825,5.372499942779541,0.8924999833106995
14.609303437499861,-0.2371679991483688,0.3047559857368469,-0.9045079946517944,-3.3600001335144043,6.317500114440918,1.2949999570846558
14.62959413671861,-0.2393639981746673,0.2957279980182647,-0.9069479703903198,-3.0799999237060547,7.385000228881836,1.4700000286102295
14.64988483593736,-0.2381439954042434,0.2910920083522796,-0.915731966495514,-1.6974999904632568,8.697500228881836,1.5225000381469729
14.67017553515611,-0.2327760010957718,0.2915799915790558,-0.9140239953994752,0.2800000011920929,9.414999961853027,1.399999976158142
14.69046623437486,-0.2259439975023269,0.2925559878349304,-0.9113399982452391,2.134999990463257,9.817500114440918,1.2424999475479126
14.71075693359361,-0.2237479984760284,0.2954840064048767,-0.9174399971961976,3.202500104904175,9.730000495910645,1.1200000047683716
14.73104763281236,-0.2215519994497299,0.2984119951725006,-0.9269559979438782,3.6050000190734863,9.11750030517578,0.9449999928474426
14.751338332031109,-0.218868002295494,0.2996319830417633,-0.9303719997406006,3.569999933242798,8.242500305175781,0.7524999976158142
14.771629031249859,-0.2144759893417358,0.3006079792976379,-0.9264679551124572,3.237499952316284,7.210000038146973,0.5600000023841858
14.791919730468608,-0.2078879922628402,0.3015840053558349,-0.9201239943504332,2.555000066757202,6.352499961853027,0.4550000131130218
14.812210429687358,-0.2049599885940551,0.2989000082015991,-0.9198799729347228,1.837499976158142,5.355000019073486,0.4375
14.832501128906108,-0.2020319998264312,0.2967039942741394,-0.9193919897079468,1.0499999523162842,4.042500019073486,0.3675000071525574
14.852791828124857,-0.2005679905414581,0.2945079803466797,-0.9140239953994752,0.332500010728836,2.5899999141693115,0.2275000065565109
14.873082527343607,-0.20032399892807,0.2959719896316528,-0.90938800573349,-0.2100000083446502,1.0674999952316284,0.1225000023841857
14.893373226562357,-0.2032520025968551,0.2981680035591125,-0.90938800573349,-0.4025000035762787,-0.1574999988079071,-0.1225000023841857
14.913663925781107,-0.2083759903907776,0.3035359978675842,-0.9149999618530272,-0.2975000143051147,-0.875,-0.2800000011920929
14.933954624999856,-0.2117919921875,0.3071959912776947,-0.9220759868621826,-0.262499988079071,-1.5225000381469729,-0.4550000131130218
14.954245324218606,-0.2115480005741119,0.3050000071525574,-0.924515962600708,-0.2800000011920929,-2.117500066757202,-0.612500011920929
14.974536023437356,-0.2125239968299865,0.3035359978675842,-0.92085599899292,-0.3849999904632568,-2.5899999141693115,-0.699999988079071
14.994826722656105,-0.2144759893417358,0.3030479848384857,-0.9171959757804872,-0.5950000286102295,-2.765000104904175,-0.6474999785423279
15.015117421874855,-0.2159399986267089,0.3045119941234588,-0.9174399971961976,-1.2599999904632568,-2.0999999046325684,-0.3499999940395355
15.035408121093605,-0.2171600013971328,0.3030479848384857,-0.9186599850654602,-1.4175000190734863,-1.75,-0.262499988079071
15.055698820312355,-0.2181359976530075,0.3008520007133484,-0.9110959768295288,-1.3825000524520874,-1.3825000524520874,-0.2275000065565109
15.075989519531104,-0.2205759882926941,0.2967039942741394,-0.9020679593086244,-1.3125,-0.7875000238418579,-0.0525000020861625
15.096280218749854,-0.2222839891910553,0.2964600026607513,-0.9057279825210572,-0.8400000333786011,-0.1924999952316284,0.0350000001490116
15.116570917968604,-0.2191119939088821,0.2998760044574737,-0.912559986114502,-0.2975000143051147,0.1924999952316284,-0.0350000001490116
15.136861617187353,-0.2174039930105209,0.3028039932250976,-0.9140239953994752,0.1924999952316284,0.4025000035762787,-0.1574999988079071
15.157152316406103,-0.2159399986267089,0.3010959923267364,-0.9140239953994752,0.4900000095367431,0.5074999928474426,-0.1924999952316284
15.177443015624853,-0.216183990240097,0.2996319830417633,-0.9132919907569884,0.612500011920929,0.6825000047683716,-0.1400000005960464
15.197733714843602,-0.2149640023708343,0.3013399839401245,-0.9120720028877258,0.5074999928474426,0.8924999833106995,-0.0350000001490116
15.218024414062352,-0.2166720032691955,0.3023159801959991,-0.9140239953994752,0.2975000143051147,0.9975000023841858,0.0175000000745058
15.238315113281102,-0.2154520004987716,0.3028039932250976,-0.9154880046844482,0.2100000083446502,1.1200000047683716,0.0350000001490116
15.258605812499852,-0.216183990240097,0.3025600016117096,-0.9152439832687378,0.2100000083446502,1.3125,0.0700000002980232
15.278896511718601,-0.2154520004987716,0.301827996969223,-0.9137799739837646,0.2100000083446502,1.5225000381469729,0.1225000023841857
15.299187210937351,-0.2134999930858612,0.3023159801959991,-0.912559986114502,0.2100000083446502,1.5575000047683716,0.1400000005960464
15.3194779101561,-0.2117919921875,0.3030479848384857,-0.9123159646987916,0.2100000083446502,1.5225000381469729,0.0874999985098838
15.33976860937485,-0.2108159959316253,0.3032920062541961,-0.9123159646987916,0.2450000047683715,1.3125,0.0700000002980232
15.3600593085936,-0.2115480005741119,0.3030479848384857,-0.913047969341278,0.1574999988079071,1.1549999713897705,0.0700000002980232
15.38035000781235,-0.2115480005741119,0.3020719885826111,-0.9140239953994752,0.0874999985098838,0.8050000071525574,-0.0525000020861625
15.4006407070311,-0.2122799903154373,0.3035359978675842,-0.9159759879112244,0.0350000001490116,0.5425000190734863,-0.0874999985098838
15.42093140624985,-0.2117919921875,0.3037799894809723,-0.9167079925537108,-0.0350000001490116,0.0175000000745058,-0.2275000065565109
15.441222105468599,-0.2122799903154373,0.3010959923267364,-0.9137799739837646,-0.0700000002980232,-0.0700000002980232,-0.1924999952316284
15.461512804687349,-0.2122799903154373,0.301827996969223,-0.9128040075302124,-0.262499988079071,-0.0350000001490116,-0.1225000023841857
15.481803503906098,-0.2113039940595626,0.3035359978675842,-0.9123159646987916,-0.4200000166893005,-0.0700000002980232,-0.0874999985098838
15.502094203124848,-0.2125239968299865,0.3040239810943603,-0.9137799739837646,-0.4375,-0.0525000020861625,-0.0700000002980232
15.522384902343598,-0.2127679884433746,0.3037799894809723,-0.9137799739837646,-0.1400000005960464,0.1225000023841857,-0.1225000023841857
15.542675601562348,-0.2149640023708343,0.3057319819927215,-0.9154880046844482,-0.0525000020861625,0.0874999985098838,-0.1574999988079071
15.562966300781097,-0.2147199958562851,0.3052439987659454,-0.9149999618530272,0.0525000020861625,0.0700000002980232,-0.1574999988079071
15.583256999999847,-0.2137439996004104,0.3040239810943603,-0.9135359525680542,0.2100000083446502,0.1050000041723251,-0.2100000083446502
15.603547699218597,-0.2127679884433746,0.3042680025100708,-0.912559986114502,0.2100000083446502,0.2100000083446502,-0.1924999952316284
15.623838398437346,-0.2127679884433746,0.3054879903793335,-0.9118279814720154,0.2100000083446502,0.2450000047683715,-0.1749999970197677
15.644129097656096,-0.2117919921875,0.3040239810943603,-0.9108519554138184,0.1749999970197677,0.262499988079071,-0.1574999988079071
15.664419796874846,-0.2125239968299865,0.3037799894809723,-0.912559986114502,0.1225000023841857,0.2800000011920929,-0.1574999988079071
15.684710496093595,-0.2125239968299865,0.3054879903793335,-0.9118279814720154,0.1400000005960464,0.4200000166893005,-0.1050000041723251
15.705001195312345,-0.2127679884433746,0.3050000071525574,-0.9128040075302124,0.1225000023841857,0.5074999928474426,-0.1225000023841857
15.725291894531095,-0.2122799903154373,0.3042680025100708,-0.913047969341278,0.1749999970197677,0.4375,-0.1574999988079071
15.745582593749845,-0.2120359987020492,0.3057319819927215,-0.9140239953994752,0.1225000023841857,0.3499999940395355,-0.1050000041723251
15.765873292968594,-0.2117919921875,0.3042680025100708,-0.912559986114502,0.0525000020861625,0.3675000071525574,-0.1050000041723251
15.786163992187344,-0.2110600024461746,0.3052439987659454,-0.9135359525680542,0.0350000001490116,0.3499999940395355,-0.1225000023841857
15.806454691406094,-0.2122799903154373,0.3054879903793335,-0.9149999618530272,0.1225000023841857,0.262499988079071,-0.1924999952316284
15.826745390624843,-0.2120359987020492,0.3047559857368469,-0.915731966495514,0.1749999970197677,0.1924999952316284,-0.1924999952316284
15.847036089843593,-0.2115480005741119,0.3052439987659454,-0.9152439832687378,0.2275000065565109,0.1400000005960464,-0.2450000047683715
15.867326789062343,-0.2125239968299865,0.3052439987659454,-0.9147560000419616,0.262499988079071,0.1574999988079071,-0.2450000047683715
15.887617488281093,-0.2120359987020492,0.3052439987659454,-0.9137799739837646,0.4025000035762787,0.1400000005960464,-0.2275000065565109
15.907908187499842,-0.2122799903154373,0.3050000071525574,-0.9123159646987916,0.4025000035762787,0.1924999952316284,-0.2450000047683715
15.928198886718592,-0.2120359987020492,0.3047559857368469,-0.912559986114502,0.3149999976158142,0.262499988079071,-0.2275000065565109
15.948489585937342,-0.2115480005741119,0.3037799894809723,-0.9128040075302124,0.3499999940395355,0.1924999952316284,-0.2275000065565109
15.968780285156091,-0.2120359987020492,0.3042680025100708,-0.9123159646987916,0.3149999976158142,0.2275000065565109,-0.2275000065565109
15.989070984374841,-0.2137439996004104,0.3052439987659454,-0.9142679572105408,0.2450000047683715,0.1749999970197677,-0.2100000083446502
16.009361683593593,-0.2137439996004104,0.3052439987659454,-0.9154880046844482,0.332500010728836,0.1924999952316284,-0.2450000047683715
16.029652382812344,-0.2127679884433746,0.3069519996643066,-0.9142679572105408,0.4200000166893005,0.2100000083446502,-0.2450000047683715
16.049943082031096,-0.2117919921875,0.3047559857368469,-0.913047969341278,0.4375,0.262499988079071,-0.2450000047683715
16.070233781249847,-0.2120359987020492,0.3032920062541961,-0.9110959768295288,0.4724999964237213,0.2450000047683715,-0.2450000047683715
16.0905244804686,-0.2108159959316253,0.3023159801959991,-0.9103639721870422,0.3499999940395355,0.2800000011920929,-0.2100000083446502
16.11081517968735,-0.2115480005741119,0.3028039932250976,-0.9110959768295288,0.332500010728836,0.2800000011920929,-0.2100000083446502
16.1311058789061,-0.2115480005741119,0.3040239810943603,-0.9108519554138184,0.3849999904632568,0.2275000065565109,-0.2275000065565109
16.151396578124853,-0.2134999930858612,0.3067080080509186,-0.915731966495514,0.4900000095367431,0.3149999976158142,-0.1924999952316284
16.171687277343604,-0.2125239968299865,0.30621999502182,-0.9179279804229736,0.4200000166893005,0.3149999976158142,-0.2275000065565109
16.191977976562356,-0.2147199958562851,0.3057319819927215,-0.9191479682922364,0.332500010728836,0.2450000047683715,-0.2450000047683715
16.212268675781107,-0.2127679884433746,0.3052439987659454,-0.918172001838684,0.3849999904632568,0.2100000083446502,-0.262499988079071
16.23255937499986,-0.2132560014724731,0.3047559857368469,-0.9164639711380004,0.5074999928474426,0.1749999970197677,-0.262499988079071
16.25285007421861,-0.2134999930858612,0.3037799894809723,-0.9147560000419616,0.5600000023841858,0.2975000143051147,-0.2800000011920929
16.273140773437362,-0.2117919921875,0.3028039932250976,-0.9118279814720154,0.5950000286102295,0.3675000071525574,-0.262499988079071
16.293431472656113,-0.2110600024461746,0.3023159801959991,-0.908411979675293,0.5600000023841858,0.1574999988079071,-0.2275000065565109
16.313722171874865,-0.2117919921875,0.3028039932250976,-0.9115839600563048,0.2800000011920929,-0.1400000005960464,-0.2450000047683715
16.334012871093616,-0.2127679884433746,0.3037799894809723,-0.9176839590072632,0.1400000005960464,-0.4550000131130218,-0.3149999976158142
16.354303570312368,-0.2127679884433746,0.3035359978675842,-0.918172001838684,0.1749999970197677,-0.3499999940395355,-0.3149999976158142
16.37459426953112,-0.2110600024461746,0.3035359978675842,-0.9137799739837646,0.4550000131130218,0.0700000002980232,-0.332500010728836
16.39488496874987,-0.2130119949579239,0.3042680025100708,-0.9108519554138184,0.6650000214576721,0.2100000083446502,-0.3149999976158142
16.415175667968622,-0.2127679884433746,0.3037799894809723,-0.9113399982452391,0.5950000286102295,0.332500010728836,-0.2800000011920929
16.435466367187374,-0.2130119949579239,0.3047559857368469,-0.9132919907569884,0.4200000166893005,0.2100000083446502,-0.2450000047683715
16.455757066406125,-0.2134999930858612,0.3040239810943603,-0.9132919907569884,0.2275000065565109,0.0525000020861625,-0.2450000047683715
16.476047765624877,-0.2132560014724731,0.3032920062541961,-0.9135359525680542,0.262499988079071,0.0525000020861625,-0.2450000047683715
16.496338464843628,-0.2137439996004104,0.3032920062541961,-0.9145119786262512,0.3849999904632568,0.0874999985098838,-0.2100000083446502
16.51662916406238,-0.2117919921875,0.3042680025100708,-0.9135359525680542,0.4724999964237213,0.1749999970197677,-0.2100000083446502
16.53691986328113,-0.2115480005741119,0.3035359978675842,-0.9118279814720154,0.5074999928474426,0.2975000143051147,-0.2275000065565109
16.557210562499883,-0.2120359987020492,0.3028039932250976,-0.9110959768295288,0.4724999964237213,0.3149999976158142,-0.2100000083446502
16.577501261718634,-0.2125239968299865,0.3023159801959991,-0.9140239953994752,0.4200000166893005,0.2450000047683715,-0.1924999952316284
16.597791960937386,-0.2125239968299865,0.3028039932250976,-0.9147560000419616,0.3849999904632568,0.2275000065565109,-0.1574999988079071
16.618082660156137,-0.2137439996004104,0.3032920062541961,-0.9147560000419616,0.4025000035762787,0.262499988079071,-0.1749999970197677
16.63837335937489,-0.2144759893417358,0.3050000071525574,-0.9154880046844482,0.4550000131130218,0.2275000065565109,-0.1749999970197677
16.65866405859364,-0.2149640023708343,0.3047559857368469,-0.9142679572105408,0.332500010728836,0.5249999761581421,-0.1225000023841857
16.67895475781239,-0.2134999930858612,0.3042680025100708,-0.9128040075302124,0.4025000035762787,0.8400000333786011,-0.0175000000745058
16.699245457031143,-0.2120359987020492,0.3023159801959991,-0.9103639721870422,0.6299999952316284,0.9100000262260436,0.0175000000745058
16.719536156249895,-0.2105719894170761,0.3006079792976379,-0.9123159646987916,0.6299999952316284,1.0850000381469729,0.0350000001490116
16.739826855468646,-0.210327997803688,0.3008520007133484,-0.9128040075302124,0.5249999761581421,1.1375000476837158,0.0175000000745058
16.760117554687398,-0.2100839912891388,0.3020719885826111,-0.9135359525680542,0.612500011920929,1.1725000143051147,-0.0175000000745058
16.78040825390615,-0.2108159959316253,0.3030479848384857,-0.9137799739837646,0.6650000214576721,1.1024999618530271,-0.0175000000745058
16.8006989531249,-0.2105719894170761,0.3030479848384857,-0.9169519543647766,0.612500011920929,1.0149999856948853,-0.0874999985098838
16.820989652343652,-0.2108159959316253,0.3037799894809723,-0.9201239943504332,0.5774999856948853,0.8400000333786011,-0.1050000041723251
16.841280351562403,-0.2108159959316253,0.3042680025100708,-0.9218319654464722,0.5774999856948853,0.5249999761581421,-0.1749999970197677
16.861571050781155,-0.2108159959316253,0.3042680025100708,-0.9210999608039856,0.5600000023841858,0.3499999940395355,-0.2100000083446502
16.881861749999906,-0.210327997803688,0.3040239810943603,-0.9196360111236572,0.5600000023841858,0.2450000047683715,-0.2450000047683715
16.902152449218658,-0.2098399996757507,0.3025600016117096,-0.9174399971961976,0.5425000190734863,0.0874999985098838,-0.2800000011920929
16.92244314843741,-0.2093520015478134,0.3020719885826111,-0.9142679572105408,0.4200000166893005,-0.0700000002980232,-0.2975000143051147
16.94273384765616,-0.2100839912891388,0.3006079792976379,-0.9137799739837646,0.2975000143051147,-0.0874999985098838,-0.262499988079071
16.963024546874912,-0.2105719894170761,0.3010959923267364,-0.9137799739837646,0.2975000143051147,0.0350000001490116,-0.2450000047683715
16.983315246093664,-0.2110600024461746,0.301827996969223,-0.9149999618530272,0.332500010728836,0.0175000000745058,-0.262499988079071
17.003605945312415,-0.2108159959316253,0.301827996969223,-0.913047969341278,0.332500010728836,0.0350000001490116,-0.262499988079071
17.023896644531167,-0.2108159959316253,0.3020719885826111,-0.9135359525680542,0.4550000131130218,0.0350000001490116,-0.2450000047683715
17.04418734374992,-0.2113039940595626,0.301827996969223,-0.9140239953994752,0.4900000095367431,0.0700000002980232,-0.2800000011920929
17.06447804296867,-0.2110600024461746,0.3015840053558349,-0.9147560000419616,0.4375,0.1050000041723251,-0.2450000047683715
17.08476874218742,-0.2105719894170761,0.301827996969223,-0.9140239953994752,0.4724999964237213,0.0874999985098838,-0.2100000083446502
17.105059441406173,-0.2105719894170761,0.3025600016117096,-0.9154880046844482,0.4724999964237213,0.1749999970197677,-0.1924999952316284
17.125350140624924,-0.2108159959316253,0.3023159801959991,-0.9171959757804872,0.4550000131130218,0.1749999970197677,-0.2450000047683715
17.145640839843676,-0.2105719894170761,0.3020719885826111,-0.9169519543647766,0.4200000166893005,0.2100000083446502,-0.2275000065565109
17.165931539062427,-0.2113039940595626,0.3028039932250976,-0.9164639711380004,0.4550000131130218,0.2100000083446502,-0.2450000047683715
17.18622223828118,-0.2110600024461746,0.3023159801959991,-0.9167079925537108,0.4900000095367431,0.2800000011920929,-0.2275000065565109
17.20651293749993,-0.210327997803688,0.301827996969223,-0.9152439832687378,0.4375,0.2800000011920929,-0.2275000065565109
17.22680363671868,-0.2108159959316253,0.3010959923267364,-0.9140239953994752,0.3499999940395355,0.1749999970197677,-0.2800000011920929
17.247094335937433,-0.2108159959316253,0.2998760044574737,-0.9145119786262512,0.3149999976158142,0.2275000065565109,-0.2275000065565109
17.267385035156185,-0.210327997803688,0.2996319830417633,-0.9159759879112244,0.3149999976158142,0.1574999988079071,-0.2275000065565109
17.287675734374936,-0.2108159959316253,0.3020719885826111,-0.9149999618530272,0.332500010728836,0.1225000023841857,-0.262499988079071
17.307966433593688,-0.2098399996757507,0.3013399839401245,-0.9145119786262512,0.3849999904632568,0.1749999970197677,-0.2100000083446502
17.32825713281244,-0.2105719894170761,0.3015840053558349,-0.9154880046844482,0.3849999904632568,0.1924999952316284,-0.2100000083446502
17.34854783203119,-0.2100839912891388,0.3008520007133484,-0.9176839590072632,0.3499999940395355,0.1924999952316284,-0.2100000083446502
17.368838531249942,-0.2115480005741119,0.2998760044574737,-0.915731966495514,0.4200000166893005,0.2100000083446502,-0.2450000047683715
17.389129230468694,-0.2110600024461746,0.2998760044574737,-0.9123159646987916,0.3849999904632568,0.2275000065565109,-0.2800000011920929
17.409419929687445,-0.2098399996757507,0.3013399839401245,-0.9120720028877258,0.332500010728836,0.1924999952316284,-0.2100000083446502
17.429710628906196,-0.2098399996757507,0.3010959923267364,-0.9135359525680542,0.2800000011920929,0.0874999985098838,-0.2275000065565109
17.450001328124948,-0.2110600024461746,0.3010959923267364,-0.9149999618530272,0.2800000011920929,-0.0700000002980232,-0.262499988079071
17.4702920273437,-0.2115480005741119,0.3025600016117096,-0.9174399971961976,0.2275000065565109,-0.0700000002980232,-0.2275000065565109
17.49058272656245,-0.2120359987020492,0.3035359978675842,-0.9198799729347228,0.2975000143051147,-0.2100000083446502,-0.262499988079071
17.510873425781202,-0.2125239968299865,0.3032920062541961,-0.9198799729347228,0.3675000071525574,-0.1749999970197677,-0.3149999976158142
17.531164124999954,-0.2130119949579239,0.3028039932250976,-0.9184159636497498,0.4200000166893005,-0.1225000023841857,-0.3149999976158142
17.551454824218705,-0.2125239968299865,0.3025600016117096,-0.9162200093269348,0.3499999940395355,-0.0525000020861625,-0.2975000143051147
17.571745523437457,-0.2110600024461746,0.301827996969223,-0.9145119786262512,0.2450000047683715,0.0874999985098838,-0.2275000065565109
17.59203622265621,-0.2117919921875,0.3008520007133484,-0.9132919907569884,0.1050000041723251,0.1574999988079071,-0.2275000065565109
17.61232692187496,-0.2115480005741119,0.3003639876842499,-0.9137799739837646,0.1924999952316284,0.1749999970197677,-0.2100000083446502
17.63261762109371,-0.2115480005741119,0.3003639876842499,-0.913047969341278,0.2100000083446502,0.262499988079071,-0.2275000065565109
17.652908320312463,-0.2117919921875,0.2996319830417633,-0.9145119786262512,0.262499988079071,0.2275000065565109,-0.2275000065565109
17.673199019531214,-0.2108159959316253,0.3006079792976379,-0.9137799739837646,0.2975000143051147,0.2800000011920929,-0.2275000065565109
17.693489718749966,-0.2117919921875,0.2993879914283752,-0.9137799739837646,0.3499999940395355,0.2275000065565109,-0.2100000083446502
17.713780417968717,-0.2117919921875,0.3006079792976379,-0.9140239953994752,0.332500010728836,0.2275000065565109,-0.2100000083446502
17.73407111718747,-0.2113039940595626,0.3006079792976379,-0.915731966495514,0.2800000011920929,0.1050000041723251,-0.1924999952316284
17.75436181640622,-0.2108159959316253,0.3008520007133484,-0.915731966495514,0.2100000083446502,0.0525000020861625,-0.2100000083446502
17.77465251562497,-0.2117919921875,0.3010959923267364,-0.9159759879112244,0.1400000005960464,-0.0175000000745058,-0.2275000065565109
17.794943214843723,-0.2115480005741119,0.3020719885826111,-0.9191479682922364,0.1749999970197677,-0.0525000020861625,-0.2275000065565109
17.815233914062475,-0.2120359987020492,0.3030479848384857,-0.918172001838684,0.2100000083446502,-0.1225000023841857,-0.2450000047683715
17.835524613281226,-0.2125239968299865,0.3032920062541961,-0.9174399971961976,0.2275000065565109,-0.1749999970197677,-0.2975000143051147
17.855815312499978,-0.2120359987020492,0.3013399839401245,-0.9142679572105408,0.2275000065565109,-0.1749999970197677,-0.3149999976158142
17.87610601171873,-0.2113039940595626,0.3013399839401245,-0.9140239953994752,0.1400000005960464,-0.1749999970197677,-0.3149999976158142
17.89639671093748,-0.2122799903154373,0.3010959923267364,-0.9142679572105408,0.1749999970197677,-0.262499988079071,-0.2975000143051147
17.916687410156232,-0.2120359987020492,0.2998760044574737,-0.913047969341278,0.1400000005960464,-0.2975000143051147,-0.2975000143051147
17.936978109374984,-0.2134999930858612,0.3008520007133484,-0.913047969341278,0.0700000002980232,-0.3499999940395355,-0.3149999976158142
17.957268808593735,-0.2137439996004104,0.3023159801959991,-0.9149999618530272,0.1749999970197677,-0.4200000166893005,-0.332500010728836
17.977559507812487,-0.2130119949579239,0.3025600016117096,-0.915731966495514,0.1400000005960464,-0.262499988079071,-0.2275000065565109
17.997850207031238,-0.2120359987020492,0.2998760044574737,-0.912559986114502,0.1924999952316284,-0.2800000011920929,-0.2450000047683715
18.01814090624999,-0.2115480005741119,0.2981680035591125,-0.90938800573349,-0.0700000002980232,-0.2800000011920929,-0.2100000083446502
18.03843160546874,-0.2120359987020492,0.2998760044574737,-0.9106079936027528,-0.262499988079071,-0.4200000166893005,-0.1574999988079071
18.058722304687493,-0.2127679884433746,0.3010959923267364,-0.9103639721870422,-0.332500010728836,-0.6650000214576721,-0.1924999952316284
18.079013003906244,-0.2139879912137985,0.3028039932250976,-0.9135359525680542,-0.4025000035762787,-0.875,-0.2275000065565109
18.099303703124995,-0.2154520004987716,0.3050000071525574,-0.9171959757804872,-0.3675000071525574,-0.9800000190734864,-0.262499988079071
18.119594402343747,-0.2154520004987716,0.30621999502182,-0.9189040064811708,-0.3499999940395355,-1.0674999952316284,-0.332500010728836
18.1398851015625,-0.2154520004987716,0.3047559857368469,-0.9164639711380004,-0.2100000083446502,-0.9275000095367432,-0.3149999976158142
18.16017580078125,-0.216183990240097,0.3035359978675842,-0.9154880046844482,-0.0525000020861625,-0.7175000309944153,-0.332500010728836
18.1804665,-0.2166720032691955,0.3037799894809723,-0.9167079925537108,0.0350000001490116,-0.6650000214576721,-0.3499999940395355
18.200757199218753,-0.2176479995250702,0.3045119941234588,-0.9179279804229736,0.1574999988079071,-0.612500011920929,-0.3675000071525574
18.221047898437504,-0.2181359976530075,0.3028039932250976,-0.915731966495514,0.4025000035762787,-0.5249999761581421,-0.4200000166893005
18.241338597656256,-0.2174039930105209,0.3015840053558349,-0.9118279814720154,0.4900000095367431,-0.4550000131130218,-0.3849999904632568
18.261629296875007,-0.218868002295494,0.3006079792976379,-0.9108519554138184,0.4550000131130218,-0.4200000166893005,-0.3675000071525574
18.28191999609376,-0.2181359976530075,0.3015840053558349,-0.9118279814720154,0.4025000035762787,-0.262499988079071,-0.3499999940395355
18.30221069531251,-0.2171600013971328,0.3028039932250976,-0.9118279814720154,0.3149999976158142,-0.2975000143051147,-0.332500010728836
