Time (seconds),acc_x,acc_y,acc_z,gyro_x,gyro_y,gyro_z
0.020159615897845172,-0.032940000295639,-0.9960079789161682,-0.057583998888731,-0.2100000083446502,-0.262499988079071,-0.0350000001490116
0.040319231795690344,-0.0319640003144741,-0.9962520003318788,-0.0558759979903698,-0.2975000143051147,-0.332500010728836,0.0175000000745058
0.060478847693535516,-0.0319640003144741,-0.998203992843628,-0.0573399998247623,-0.3499999940395355,-0.4900000095367431,0.0700000002980232
0.08063846359138069,-0.0309880003333091,-0.9962520003318788,-0.0546559989452362,-0.2975000143051147,-0.4375,0.0175000000745058
0.10079807948922587,-0.0319640003144741,-0.998691976070404,-0.0590479969978332,-0.4200000166893005,-0.4550000131130218,0.0175000000745058
0.12095769538707105,-0.0322079993784427,-1.000643968582153,-0.0605119988322258,-0.1574999988079071,-0.2800000011920929,-0.0525000020861625
0.14111731128491622,-0.0324519984424114,-0.9977160096168518,-0.0570959970355033,0.0350000001490116,-0.0175000000745058,-0.1050000041723251
0.1612769271827614,-0.0297679994255304,-0.9945439696311952,-0.057583998888731,-0.262499988079071,0.3149999976158142,0.0525000020861625
0.18143654308060658,-0.0295239984989166,-0.9964959621429444,-0.0592919997870922,-0.5249999761581421,0.5074999928474426,0.1050000041723251
0.20159615897845176,-0.0290360003709793,-0.995519995689392,-0.0563639998435974,-0.4550000131130218,0.6825000047683716,0.1050000041723251
0.22175577487629694,-0.0331839993596077,-0.9960079789161682,-0.0573399998247623,-0.3149999976158142,0.7175000309944153,0.1225000023841857
0.24191539077414212,-0.0358680002391338,-0.9977160096168518,-0.0558759979903698,-0.3849999904632568,0.5950000286102295,0.1225000023841857
0.2620750066719873,-0.0344039984047412,-0.9972279667854308,-0.0551439970731735,-0.4025000035762787,0.3499999940395355,0.0175000000745058
0.28223462256983245,-0.0307439994066953,-0.9984479546546936,-0.0605119988322258,-0.4900000095367431,0.1225000023841857,0.1749999970197677
0.3023942384676776,-0.0273279994726181,-0.9977160096168518,-0.056607998907566,-0.4025000035762787,0.1400000005960464,0.1225000023841857
0.32255385436552275,-0.0287919994443655,-0.9967399835586548,-0.0619760006666183,-0.4025000035762787,0.3849999904632568,0.0874999985098838
0.3427134702633679,-0.0297679994255304,-0.9984479546546936,-0.0588039979338645,-0.2800000011920929,0.8050000071525574,0.1050000041723251
0.36287308616121305,-0.0326960012316703,-0.9974719882011414,-0.0583159998059272,-0.1574999988079071,0.7350000143051147,-0.0700000002980232
0.3830327020590582,-0.032940000295639,-0.9974719882011414,-0.0627079978585243,-0.0874999985098838,0.4375,-0.1225000023841857
0.40319231795690336,-0.032940000295639,-0.9964959621429444,-0.0629519969224929,-0.0175000000745058,0.332500010728836,-0.0175000000745058
0.4233519338547485,-0.0324519984424114,-0.9967399835586548,-0.0617319978773593,-0.2100000083446502,0.0350000001490116,0.1574999988079071
0.44351154975259366,-0.0324519984424114,-0.9977160096168518,-0.0629519969224929,-0.1050000041723251,-0.0175000000745058,0.0525000020861625
0.4636711656504388,-0.0331839993596077,-0.998203992843628,-0.0617319978773593,0.0700000002980232,-0.1225000023841857,-0.0874999985098838
0.48383078154828396,-0.0292799994349479,-0.9935680031776428,-0.0619760006666183,0.1574999988079071,-0.3675000071525574,0.1400000005960464
0.5039903974461292,-0.0265959985554218,-0.9974719882011414,-0.0636840015649795,-0.0175000000745058,-0.3149999976158142,0.1924999952316284
0.5241500133439744,-0.0265959985554218,-0.998203992843628,-0.0636840015649795,0.0525000020861625,-0.1050000041723251,0.0350000001490116
0.5443096292418196,-0.0297679994255304,-0.9984479546546936,-0.0649039968848228,0.2275000065565109,0.0350000001490116,-0.2100000083446502
0.5644692451396648,-0.0317199975252151,-0.9989359974861144,-0.0639280006289482,0.2975000143051147,0.2100000083446502,-0.2800000011920929
0.58462886103751,-0.0324519984424114,-0.998691976070404,-0.0639280006289482,0.4200000166893005,0.2975000143051147,-0.3499999940395355
0.6047884769353552,-0.0326960012316703,-0.9967399835586548,-0.0636840015649795,0.5249999761581421,0.2800000011920929,-0.3849999904632568
0.6249480928332004,-0.0326960012316703,-0.9943000078201294,-0.0627079978585243,0.4025000035762787,0.2800000011920929,-0.4550000131130218
0.6451077087310456,-0.0319640003144741,-0.9969840049743652,-0.0617319978773593,0.1574999988079071,0.2100000083446502,-0.4025000035762787
0.6652673246288908,-0.0326960012316703,-0.9977160096168518,-0.0614879988133907,0.1225000023841857,0.2450000047683715,-0.332500010728836
0.685426940526736,-0.0304999984800815,-0.9974719882011414,-0.0624639987945556,0.1050000041723251,0.2275000065565109,-0.3849999904632568
0.7055865564245812,-0.0304999984800815,-0.998203992843628,-0.0646599978208541,0.2275000065565109,0.2275000065565109,-0.3675000071525574
0.7257461723224264,-0.0304999984800815,-0.9967399835586548,-0.0653920024633407,0.3499999940395355,0.3849999904632568,-0.4025000035762787
0.7459057882202716,-0.0331839993596077,-0.998691976070404,-0.0683199986815452,0.3499999940395355,0.5774999856948853,-0.4375
0.7660654041181169,-0.0348920002579689,-1.0021079778671265,-0.0680759996175766,0.4724999964237213,0.699999988079071,-0.5074999928474426
0.7862250200159621,-0.0319640003144741,-0.998203992843628,-0.0641719996929168,0.8400000333786011,0.7175000309944153,-0.5249999761581421
0.8063846359138073,-0.0304999984800815,-0.9972279667854308,-0.0629519969224929,0.9449999928474426,0.6650000214576721,-0.4550000131130218
0.8265442518116525,-0.0324519984424114,-0.9962520003318788,-0.0631959959864616,0.7350000143051147,0.699999988079071,-0.3499999940395355
0.8467038677094977,-0.032940000295639,-0.994055986404419,-0.0563639998435974,0.5774999856948853,0.4724999964237213,-0.332500010728836
0.8668634836073429,-0.0307439994066953,-0.993079960346222,-0.0600240007042884,0.2800000011920929,0.3149999976158142,-0.3499999940395355
0.8870230995051881,-0.0268399994820356,-0.994055986404419,-0.0646599978208541,0.0175000000745058,0.4200000166893005,-0.2800000011920929
0.9071827154030333,-0.0297679994255304,-0.9991799592971802,-0.0641719996929168,-0.1050000041723251,0.9449999928474426,-0.3499999940395355
0.9273423313008785,-0.0324519984424114,-1.001863956451416,-0.0624639987945556,0.2800000011920929,0.9975000023841858,-0.612500011920929
0.9475019471987237,-0.0344039984047412,-1.0001559257507324,-0.0590479969978332,0.5950000286102295,0.9275000095367432,-0.6474999785423279
0.9676615630965689,-0.0353799983859062,-1.0016199350357056,-0.0617319978773593,0.7175000309944153,0.5950000286102295,-0.5249999761581421
0.9878211789944141,-0.0351359993219375,-0.9999119639396667,-0.0631959959864616,0.9800000190734864,0.3675000071525574,-0.4375
1.0079807948922592,-0.0322079993784427,-0.9964959621429444,-0.0624639987945556,1.4524999856948853,0.2800000011920929,-0.3849999904632568
1.0281404107901044,-0.032940000295639,-0.9960079789161682,-0.0609999969601631,1.4700000286102295,0.1574999988079071,-0.3675000071525574
1.0483000266879496,-0.033671997487545,-0.9947879910469056,-0.0585599988698959,1.3300000429153442,0.0350000001490116,-0.3675000071525574
1.0684596425857948,-0.0307439994066953,-0.9925919771194458,-0.0592919997870922,1.1200000047683716,-0.1050000041723251,-0.2975000143051147
1.08861925848364,-0.0295239984989166,-0.9928359985351562,-0.0580720007419586,0.7524999976158142,0.0175000000745058,-0.2800000011920929
1.1087788743814853,-0.0317199975252151,-0.9947879910469056,-0.0578279979526996,0.3149999976158142,0.1924999952316284,-0.2800000011920929
1.1289384902793305,-0.0312319993972778,-0.995519995689392,-0.0556319989264011,0.0874999985098838,0.1225000023841857,-0.2275000065565109
1.1490981061771757,-0.0319640003144741,-0.9964959621429444,-0.0578279979526996,-0.0525000020861625,0.0350000001490116,-0.1749999970197677
1.1692577220750209,-0.0300120003521442,-0.9979599714279176,-0.0592919997870922,-0.1400000005960464,-0.0525000020861625,-0.1050000041723251
1.189417337972866,-0.0300120003521442,-1.0001559257507324,-0.0614879988133907,-0.0525000020861625,-0.1050000041723251,-0.0175000000745058
1.2095769538707113,-0.0300120003521442,-1.0016199350357056,-0.0595359988510608,0.2275000065565109,0.0525000020861625,-0.0525000020861625
1.2297365697685565,-0.0319640003144741,-1.001376032829285,-0.0592919997870922,0.5600000023841858,0.0874999985098838,-0.1050000041723251
1.2498961856664017,-0.0317199975252151,-0.9999119639396667,-0.0578279979526996,0.8575000166893005,0.1400000005960464,-0.1400000005960464
1.270055801564247,-0.0287919994443655,-0.9962520003318788,-0.0546559989452362,1.0149999856948853,0.1574999988079071,-0.2100000083446502
1.2902154174620921,-0.0273279994726181,-0.9938119649887084,-0.0563639998435974,0.8924999833106995,-0.0525000020861625,-0.2275000065565109
1.3103750333599373,-0.0290360003709793,-0.9938119649887084,-0.0551439970731735,0.6825000047683716,-0.0700000002980232,-0.3499999940395355
1.3305346492577825,-0.0300120003521442,-0.9967399835586548,-0.0597799979150295,0.5249999761581421,-0.0175000000745058,-0.4375
1.3506942651556277,-0.0317199975252151,-0.9996680021286012,-0.0592919997870922,0.3849999904632568,0.0525000020861625,-0.3149999976158142
1.370853881053473,-0.0273279994726181,-1.0001559257507324,-0.0588039979338645,0.5425000190734863,0.0700000002980232,-0.2100000083446502
1.3910134969513182,-0.0275719985365867,-0.9977160096168518,-0.0609999969601631,0.7875000238418579,0.1924999952316284,-0.1924999952316284
1.4111731128491634,-0.0292799994349479,-1.0003999471664429,-0.0609999969601631,0.7699999809265137,0.2275000065565109,-0.1924999952316284
1.4313327287470086,-0.0297679994255304,-0.998691976070404,-0.052947998046875,0.9100000262260436,0.0700000002980232,-0.2100000083446502
1.4514923446448538,-0.0268399994820356,-0.9928359985351562,-0.0568519979715347,0.9275000095367432,0.0175000000745058,-0.3149999976158142
1.471651960542699,-0.0251320004463195,-0.9928359985351562,-0.0619760006666183,0.699999988079071,0.3849999904632568,-0.2800000011920929
1.4918115764405442,-0.0285479985177516,-0.998691976070404,-0.0570959970355033,0.699999988079071,0.8224999904632568,-0.4375
1.5119711923383894,-0.0309880003333091,-0.9984479546546936,-0.0536799989640712,0.5950000286102295,0.9100000262260436,-0.5774999856948853
1.5321308082362346,-0.032940000295639,-0.9977160096168518,-0.05197199806571,0.2975000143051147,0.8400000333786011,-0.4550000131130218
1.5522904241340798,-0.0324519984424114,-0.9974719882011414,-0.052947998046875,0.2800000011920929,0.4724999964237213,-0.3499999940395355
1.572450040031925,-0.0312319993972778,-1.0001559257507324,-0.057583998888731,0.1924999952316284,0.3675000071525574,-0.262499988079071
1.5926096559297702,-0.0304999984800815,-1.000643968582153,-0.0561200007796287,0.4724999964237213,0.1574999988079071,-0.2450000047683715
1.6127692718276154,-0.0273279994726181,-0.998203992843628,-0.0541680008172988,1.2949999570846558,0.2800000011920929,-0.3675000071525574
1.6329288877254606,-0.0280600003898143,-0.9994239807128906,-0.0517279990017414,1.0499999523162842,0.4550000131130218,-0.1924999952316284
1.6530885036233058,-0.0270840004086494,-1.0021079778671265,-0.0541680008172988,0.7175000309944153,0.5074999928474426,-0.0525000020861625
1.673248119521151,-0.0265959985554218,-1.0033279657363892,-0.0573399998247623,0.7875000238418579,0.3675000071525574,-0.1225000023841857
1.6934077354189963,-0.0319640003144741,-1.0084519386291504,-0.0649039968848228,1.1200000047683716,0.2100000083446502,-0.3849999904632568
1.7135673513168415,-0.0319640003144741,-0.998691976070404,-0.066611997783184,2.4674999713897705,0.1225000023841857,-0.8400000333786011
1.7337269672146867,-0.0351359993219375,-0.990395963191986,-0.0683199986815452,3.0274999141693115,0.1924999952316284,-0.962499976158142
1.7538865831125319,-0.0348920002579689,-0.9801479578018188,-0.0597799979150295,2.625,0.3849999904632568,-0.5950000286102295
1.774046199010377,-0.0304999984800815,-0.9757559895515442,-0.0495319999754428,1.2949999570846558,0.6299999952316284,-0.2800000011920929
1.7942058149082223,-0.028303999453783,-0.9833199977874756,-0.042943999171257,-0.4550000131130218,0.5249999761581421,-0.1225000023841857
1.8143654308060675,-0.0287919994443655,-0.9935680031776428,-0.0444080010056495,-2.275000095367432,0.3499999940395355,0.0874999985098838
1.8345250467039127,-0.0224479995667934,-1.0035719871520996,-0.0492879971861839,-2.852499961853028,0.3849999904632568,0.0525000020861625
1.854684662601758,-0.0212280005216598,-1.0094280242919922,-0.0544119998812675,-2.275000095367432,0.2100000083446502,-0.332500010728836
1.8748442784996031,-0.0207399986684322,-1.012355923652649,-0.0556319989264011,-1.399999976158142,0.1574999988079071,-0.5425000190734863
1.8950038943974483,-0.0214719995856285,-1.0106480121612549,-0.0544119998812675,-0.1400000005960464,0.2800000011920929,-0.6299999952316284
1.9151635102952935,-0.0287919994443655,-1.010892033576965,-0.0573399998247623,0.9449999928474426,0.332500010728836,-0.699999988079071
1.9353231261931387,-0.0300120003521442,-1.011379957199097,-0.0485559999942779,2.0999999046325684,-0.0874999985098838,-0.7699999809265137
1.955482742090984,-0.0309880003333091,-1.0111359357833862,-0.0561200007796287,3.220000028610229,-0.4025000035762787,-0.8575000166893005
1.9756423579888291,-0.033671997487545,-1.0040600299835205,-0.0617319978773593,4.550000190734863,-0.1225000023841857,-0.7524999976158142
1.9958019738866744,-0.0297679994255304,-1.0003999471664429,-0.0700279995799064,4.987500190734863,1.2074999809265137,-0.7699999809265137
2.0159615897845193,-0.0195199996232986,-0.9921039938926696,-0.0509959980845451,4.8125,1.837499976158142,-0.8224999904632568
2.0361212056823645,-0.0129319997504353,-0.9842959642410278,-0.0534359999001026,4.025000095367432,2.0999999046325684,-0.9275000095367432
2.0562808215802098,-0.0019519999623298,-0.9755119681358336,-0.061243999749422,2.4674999713897705,2.9049999713897705,-0.5425000190734863
2.076440437478055,0.0043919999152421,-1.0077199935913086,-0.0788119956851005,-0.4724999964237213,4.742499828338623,-0.2800000011920929
2.0966000533759,-0.0490439981222152,-1.0118680000305176,-0.0641719996929168,-0.6650000214576721,7.945000171661377,0.0350000001490116
2.1167596692737454,-0.0768599957227706,-1.0333399772644043,-0.0983319953083992,-0.7699999809265137,10.43000030517578,2.012500047683716
2.1369192851715906,-0.1049199998378753,-1.0452959537506104,-0.1071159988641738,0.2100000083446502,13.300000190734863,6.125
2.157078901069436,-0.1290760040283203,-1.0235799551010132,-0.1122400015592575,1.8025000095367432,13.282500267028809,10.56999969482422
2.177238516967281,-0.1132159978151321,-0.9877119660377502,-0.1234639957547187,1.4350000619888306,11.00749969482422,14.980000495910645
2.197398132865126,-0.0919879972934722,-0.9559919834136964,-0.1161440014839172,-1.7675000429153442,9.99250030517578,19.26749992370605
2.2175577487629714,-0.0458719991147518,-0.9842959642410278,-0.0800319984555244,-8.645000457763672,8.732500076293945,22.417499542236328
2.2377173646608166,-0.0204959996044635,-1.0128439664840698,-0.0588039979338645,-8.137499809265137,8.890000343322754,18.77750015258789
2.257876980558662,0.0034159999340772,-1.0296800136566162,-0.0392839983105659,-4.96999979019165,10.832500457763672,14.105000495910645
2.278036596456507,0.0102479998022317,-1.0260199308395386,-0.0185439996421337,-0.7350000143051147,13.020000457763672,9.520000457763672
2.2981962123543522,-0.0007319999858736,-0.97599995136261,0.0029279999434947,5.162499904632568,15.574999809265137,4.147500038146973
2.3183558282521974,-0.0200079996138811,-0.9303719997406006,0.0129319997504353,8.085000038146973,18.655000686645508,-1.5575000047683716
2.3385154441500426,-0.0400159992277622,-0.8813279867172241,0.0322079993784427,9.782500267028809,18.5674991607666,-8.78499984741211
2.358675060047888,-0.0695400014519691,-0.8622959852218628,0.0502640008926391,6.929999828338623,15.81999969482422,-15.994999885559082
2.378834675945733,-0.0924759954214096,-0.8818159699440002,0.0588039979338645,3.0975000858306885,10.90250015258789,-23.852500915527344
2.3989942918435783,-0.1422519981861114,-0.9506239891052246,0.0505079999566078,-0.4724999964237213,3.237499952316284,-30.940000534057617
2.4191539077414235,-0.124439999461174,-1.1365519762039185,-0.0590479969978332,-11.042500495910645,-2.852499961853028,-30.92250061035156
2.4393135236392687,-0.1178519949316978,-1.3502960205078125,-0.0990639999508857,-15.154999732971191,-2.852499961853028,-18.165000915527344
2.459473139537114,-0.0675880014896392,-1.3495639562606812,-0.0295239984989166,3.552500009536743,-3.6050000190734863,-1.8550000190734863
2.479632755434959,-0.0163480006158351,-0.9796599745750428,-0.0588039979338645,33.005001068115234,-6.720000267028809,-0.3499999940395355
2.4997923713328043,0.0585599988698959,-0.7310239672660828,-0.1481079906225204,29.364999771118164,-6.755000114440918,-9.3100004196167
2.5199519872306495,0.1254159957170486,-0.7925119996070862,-0.1334680020809173,1.4350000619888306,-0.1050000041723251,-10.220000267028809
2.5401116031284947,0.1178519949316978,-0.87254399061203,-0.1073599979281425,-17.674999237060547,8.8725004196167,-5.197500228881836
2.56027121902634,0.0627079978585243,-0.936959981918335,-0.0927200019359588,-25.95249938964844,14.5600004196167,-2.345000028610229
2.580430834924185,-0.0234239995479583,-1.0155279636383057,-0.0448959991335868,-27.33500099182129,17.2549991607666,-2.7300000190734863
2.6005904508220303,-0.0719799995422363,-1.070915937423706,-0.0178119987249374,-21.104999542236328,14.892499923706056,-5.355000019073486
2.6207500667198755,-0.0729559957981109,-1.0560319423675537,-0.0158599987626075,-10.779999732971191,9.3100004196167,-8.662500381469727
2.6409096826177207,-0.0490439981222152,-0.990884006023407,-0.0322079993784427,-0.6474999785423279,2.484999895095825,-10.885000228881836
2.661069298515566,-0.0558759979903698,-0.8837679624557495,-0.0248879995197057,7.244999885559082,-1.7675000429153442,-8.680000305175781
2.681228914413411,-0.052947998046875,-0.936959981918335,-0.0483120009303092,-2.5374999046325684,-4.952499866485596,-5.460000038146973
2.7013885303112564,-0.0514839999377727,-1.0125999450683594,-0.100283995270729,-10.727499961853027,-8.574999809265137,-4.304999828338623
2.7215481462091016,-0.0344039984047412,-1.0804319381713867,-0.0863759964704513,-10.202500343322754,-11.550000190734863,-1.5575000047683716
2.7417077621069468,-0.0085399998351931,-1.1267919540405271,-0.1100439950823783,-6.177500247955322,-11.74250030517578,1.715000033378601
2.761867378004792,0.0134199997410178,-1.1255719661712646,-0.0797879993915557,0.3675000071525574,-10.5,3.745000123977661
2.782026993902637,0.0773480013012886,-1.0504199266433716,-0.0722239986062049,7.735000133514404,-6.877500057220459,3.815000057220459
2.8021866098004824,0.109555996954441,-0.9589200019836426,-0.0834480002522468,11.4975004196167,-0.7175000309944153,3.7274999618530273
2.8223462256983276,0.075883999466896,-0.9672159552574158,-0.0588039979338645,5.897500038146973,9.135000228881836,1.8200000524520876
2.842505841596173,0.0634399950504303,-0.9562360048294068,-0.0409919992089271,6.860000133514404,11.88249969482422,-0.2450000047683715
2.862665457494018,0.0434319972991943,-0.93232399225235,-0.0356239974498748,6.789999961853027,13.49250030517578,-1.2949999570846558
2.8828250733918632,0.0019519999623298,-0.9391559958457948,-0.0458719991147518,2.309999942779541,13.982500076293944,-0.8924999833106995
2.9029846892897084,-0.0573399998247623,-0.9889319539070128,-0.0456280000507831,-3.8324999809265137,12.232500076293944,0.3149999976158142
2.9231443051875536,-0.0895479992032051,-1.0357799530029297,-0.0548999980092048,-6.632500171661377,6.545000076293945,0.4900000095367431
2.943303921085399,-0.1090679988265037,-1.0499320030212402,-0.0812520012259483,-5.215000152587891,-0.2800000011920929,-0.1050000041723251
2.963463536983244,-0.1139479950070381,-1.042855978012085,-0.0924759954214096,-2.047499895095825,-6.492499828338623,-0.5074999928474426
2.9836231528810893,-0.0910120010375976,-1.0374879837036133,-0.0944279953837394,0.9800000190734864,-11.899999618530272,0.0525000020861625
3.0037827687789345,-0.0573399998247623,-1.014796018600464,-0.0897919982671737,4.09499979019165,-15.855000495910645,0.6825000047683716
3.0239423846767797,-0.0202520005404949,-0.9972279667854308,-0.0932080000638961,4.690000057220459,-17.815000534057617,1.5750000476837158
3.044102000574625,0.0080519998446106,-0.9901520013809204,-0.0885719954967498,5.267499923706055,-17.815000534057617,1.8550000190734863
3.06426161647247,0.0270840004086494,-0.9860039949417114,-0.0773480013012886,5.722499847412109,-16.642499923706055,1.3125
3.0844212323703153,0.0287919994443655,-0.9913719892501832,-0.0561200007796287,5.985000133514404,-14.40250015258789,0.2800000011920929
3.1045808482681605,0.0190319996327161,-0.990395963191986,-0.0387960001826286,6.142499923706055,-11.550000190734863,-0.6299999952316284
3.1247404641660057,0.0158599987626075,-0.9818559885025024,-0.0339160002768039,6.072500228881836,-8.819999694824219,-0.6474999785423279
3.144900080063851,0.018300000578165,-0.9796599745750428,-0.0468479990959167,4.952499866485596,-6.440000057220459,-0.0525000020861625
3.165059695961696,0.0180559996515512,-0.9801479578018188,-0.0548999980092048,2.432500123977661,-4.007500171661377,0.5249999761581421
3.1852193118595413,0.006343999877572,-0.9913719892501832,-0.0553879998624324,-0.3499999940395355,-1.8550000190734863,0.7175000309944153
3.2053789277573865,-0.0082959998399019,-0.9840520024299622,-0.065880000591278,-1.2599999904632568,-0.8400000333786011,0.7524999976158142
3.2255385436552317,-0.0175679996609687,-0.9799039959907532,-0.0705159977078437,-2.275000095367432,-0.1225000023841857,1.837499976158142
3.245698159553077,-0.0268399994820356,-0.9864919781684875,-0.0631959959864616,-4.130000114440918,0.0874999985098838,2.8350000381469727
3.265857775450922,-0.023667998611927,-0.9962520003318788,-0.0778359994292259,-5.302500247955322,0.1225000023841857,3.009999990463257
3.2860173913487674,-0.0175679996609687,-0.9923479557037354,-0.0861319974064827,-5.599999904632568,0.5425000190734863,3.009999990463257
3.3061770072466126,-0.0117119997739791,-1.0001559257507324,-0.0819839984178543,-6.002500057220459,1.4175000190734863,2.694999933242798
3.3263366231444578,-0.0097599998116493,-1.0072319507598877,-0.0756400004029274,-5.96750020980835,1.680000066757202,1.8725000619888303
3.346496239042303,-0.0148839997127652,-1.0150399208068848,-0.0702719986438751,-5.670000076293945,1.3125,0.612500011920929
3.366655854940148,-0.0270840004086494,-1.0172359943389893,-0.0641719996929168,-4.042500019073486,0.6650000214576721,-0.5600000023841858
3.3868154708379934,-0.0346480011940002,-1.016503930091858,-0.0583159998059272,-1.5225000381469729,-0.1400000005960464,-0.6299999952316284
3.4069750867358386,-0.0314759984612464,-1.009671926498413,-0.056607998907566,0.3149999976158142,-0.8400000333786011,-0.332500010728836
3.427134702633684,-0.0434319972991943,-0.9918599724769592,-0.062219999730587,1.225000023841858,-2.852499961853028,0.699999988079071
3.447294318531529,-0.032940000295639,-0.9913719892501832,-0.061243999749422,0.5950000286102295,-4.21750020980835,1.0325000286102295
3.467453934429374,-0.0270840004086494,-0.9964959621429444,-0.0539239980280399,-0.1574999988079071,-5.144999980926514,1.2599999904632568
3.4876135503272194,-0.0234239995479583,-0.9974719882011414,-0.0539239980280399,-0.2275000065565109,-5.96750020980835,0.5774999856948853
3.5077731662250646,-0.0195199996232986,-0.9952759742736816,-0.0592919997870922,0.2800000011920929,-6.090000152587891,-0.0700000002980232
3.52793278212291,-0.0165919996798038,-0.9945439696311952,-0.0609999969601631,0.9275000095367432,-5.6875,-0.2100000083446502
3.548092398020755,-0.0151279997080564,-1.0025960206985474,-0.0690519958734512,1.225000023841858,-4.882500171661377,-0.1225000023841857
3.5682520139186003,0.0007319999858736,-0.998691976070404,-0.0712479948997497,1.7324999570846558,-3.7274999618530273,-0.1400000005960464
3.5884116298164455,0.0053679998964071,-1.0021079778671265,-0.0783239975571632,1.4175000190734863,-2.1875,-0.0525000020861625
3.6085712457142907,0.0004879999905824,-0.9989359974861144,-0.0702719986438751,1.3125,-0.4025000035762787,-0.1749999970197677
3.628730861612136,-0.0075639998540282,-0.9979599714279176,-0.0592919997870922,1.4350000619888306,0.6650000214576721,-0.4200000166893005
3.648890477509981,-0.0175679996609687,-1.0001559257507324,-0.0378200002014637,1.680000066757202,0.5249999761581421,-0.8050000071525574
3.6690500934078263,-0.0322079993784427,-1.001863956451416,-0.0536799989640712,1.837499976158142,0.6474999785423279,-1.1549999713897705
3.6892097093056715,-0.0461159981787204,-0.9994239807128906,-0.0980879962444305,3.3949999809265137,1.924999952316284,-1.347499966621399
3.7093693252035167,-0.0375759974122047,-0.998691976070404,-0.0707599967718124,4.690000057220459,3.430000066757202,-1.3650000095367432
3.729528941101362,-0.0202520005404949,-0.982587993144989,-0.0324519984424114,4.934999942779541,3.692500114440918,-1.3825000524520874
3.749688556999207,-0.0200079996138811,-0.9713639616966248,-0.0348920002579689,2.309999942779541,2.4674999713897705,-0.612500011920929
3.7698481728970523,-0.0270840004086494,-0.9757559895515442,-0.0580720007419586,-0.5600000023841858,1.8200000524520876,0.5774999856948853
3.7900077887948975,-0.0363559983670711,-0.9838079810142516,-0.0763719975948333,-1.6449999809265137,1.8725000619888303,1.4350000619888306
3.8101674046927427,-0.041967999190092,-0.9938119649887084,-0.0790559947490692,-1.995000004768372,2.327500104904175,1.5399999618530271
3.830327020590588,-0.0505079999566078,-1.0025960206985474,-0.0822279974818229,-2.432500123977661,1.8725000619888303,1.1549999713897705
3.850486636488433,-0.0546559989452362,-0.9933239817619324,-0.0861319974064827,-1.75,0.9449999928474426,0.5950000286102295
3.8706462523862784,-0.0439199991524219,-0.981611967086792,-0.0753960013389587,-1.627500057220459,0.3849999904632568,0.3499999940395355
3.8908058682841236,-0.0322079993784427,-0.970143973827362,-0.0690519958734512,-3.4124999046325684,0.0350000001490116,0.4200000166893005
3.9109654841819688,-0.0326960012316703,-0.9747799634933472,-0.0705159977078437,-6.667500019073486,-1.2424999475479126,0.9100000262260436
3.931125100079814,-0.0400159992277622,-0.9869799613952636,-0.0736880004405975,-8.75,-2.362499952316284,1.3825000524520874
3.951284715977659,-0.0407480001449584,-1.001863956451416,-0.0707599967718124,-9.15250015258789,-3.797500133514404,1.6974999904632568
3.9714443318755044,-0.0363559983670711,-1.015771985054016,-0.0790559947490692,-8.137499809265137,-4.96999979019165,1.7675000429153442
3.9916039477733496,-0.0261080004274845,-1.0191879272460938,-0.0795440003275871,-5.775000095367432,-5.425000190734863,1.680000066757202
4.011763563671194,-0.0165919996798038,-1.0284600257873535,-0.0863759964704513,-3.640000104904175,-4.917500019073486,1.627500057220459
4.03192317956904,0.0129319997504353,-1.0252879858016968,-0.0927200019359588,1.347499966621399,-1.5575000047683716,0.2975000143051147
4.052082795466885,0.0090279998257756,-1.0145519971847534,-0.0939399972558021,2.992500066757202,0.3149999976158142,-0.4724999964237213
4.07224241136473,0.0065879998728632,-1.0025960206985474,-0.0875959992408752,4.164999961853027,2.5199999809265137,-1.347499966621399
4.092402027262575,-0.0060999998822808,-0.9960079789161682,-0.0834480002522468,4.514999866485596,4.077499866485596,-1.9600000381469729
4.11256164316042,-0.0180559996515512,-0.995519995689392,-0.0819839984178543,4.795000076293945,5.144999980926514,-2.0824999809265137
4.132721259058266,-0.0217159986495971,-0.9891759753227234,-0.0761279985308647,5.389999866485596,4.952499866485596,-2.134999990463257
4.152880874956111,-0.0256199985742568,-0.9864919781684875,-0.0753960013389587,4.865000247955322,4.077499866485596,-2.275000095367432
4.173040490853956,-0.0265959985554218,-0.9889319539070128,-0.0734440013766288,3.8324999809265137,3.202500104904175,-2.2925000190734863
4.193200106751801,-0.0285479985177516,-0.987223982810974,-0.0749079957604408,2.992500066757202,2.782500028610229,-1.9774999618530276
4.213359722649646,-0.0295239984989166,-0.9830759763717652,-0.0810080021619796,2.2225000858306885,2.1524999141693115,-1.3125
4.233519338547492,-0.0285479985177516,-0.981123983860016,-0.0802759975194931,1.1024999618530271,2.240000009536743,-0.6474999785423279
4.253678954445337,-0.0270840004086494,-0.9791719913482666,-0.0802759975194931,-0.1574999988079071,2.1700000762939453,-0.2450000047683715
4.273838570343182,-0.0265959985554218,-0.9828319549560548,-0.0836919993162155,-1.3650000095367432,1.8200000524520876,0.0874999985098838
4.293998186241027,-0.0243999995291233,-0.9882000088691713,-0.0854000002145767,-2.414999961853028,1.662500023841858,0.3849999904632568
4.3141578021388725,-0.023667998611927,-0.9960079789161682,-0.0875959992408752,-3.0450000762939453,1.715000033378601,0.5950000286102295
4.334317418036718,-0.0229359995573759,-1.000643968582153,-0.085156001150608,-3.237499952316284,1.8899999856948853,0.612500011920929
4.354477033934563,-0.0287919994443655,-1.0008879899978638,-0.0824719965457916,-2.870000123977661,1.8725000619888303,0.4900000095367431
4.374636649832408,-0.0317199975252151,-0.9979599714279176,-0.0832040011882782,-2.1524999141693115,1.8200000524520876,0.3499999940395355
4.394796265730253,-0.0366000011563301,-0.9996680021286012,-0.0900359973311424,-1.924999952316284,1.6974999904632568,0.4200000166893005
4.4149558816280985,-0.0380639992654323,-1.0086959600448608,-0.0888160020112991,-1.9600000381469729,1.2424999475479126,0.6825000047683716
4.435115497525944,-0.038307998329401,-1.0055240392684937,-0.0849120020866394,-1.0850000381469729,0.5950000286102295,0.6299999952316284
4.455275113423789,-0.0390399992465972,-0.9996680021286012,-0.0890600010752677,-0.6299999952316284,0.3149999976158142,0.612500011920929
4.475434729321634,-0.0461159981787204,-1.0040600299835205,-0.0917439982295036,-0.612500011920929,0.3149999976158142,0.612500011920929
4.495594345219479,-0.0339160002768039,-0.9991799592971802,-0.0751519948244094,0.0700000002980232,-0.2450000047683715,0.2100000083446502
4.5157539611173245,-0.0366000011563301,-0.9952759742736816,-0.0763719975948333,0.2100000083446502,-0.9275000095367432,0.0350000001490116
4.53591357701517,-0.0280600003898143,-0.9874680042266846,-0.0793000012636184,-0.0175000000745058,-1.5225000381469729,0.0350000001490116
4.556073192913015,-0.0195199996232986,-0.990884006023407,-0.0890600010752677,-0.699999988079071,-1.5225000381469729,0.2800000011920929
4.57623280881086,-0.0173240005970001,-0.9882000088691713,-0.0917439982295036,-1.2424999475479126,-1.3300000429153442,0.4025000035762787
4.596392424708705,-0.0126879997551441,-0.98990797996521,-0.0856439992785453,-2.257499933242798,-0.3149999976158142,0.4375
4.6165520406065506,-0.0134199997410178,-0.993079960346222,-0.0807639956474304,-3.0450000762939453,0.0350000001490116,0.3849999904632568
4.636711656504396,-0.0168359987437725,-0.9950319528579712,-0.0702719986438751,-3.954999923706055,-0.4200000166893005,0.699999988079071
4.656871272402241,-0.0256199985742568,-0.9967399835586548,-0.0729559957981109,-3.972500085830689,-0.1574999988079071,0.6825000047683716
4.677030888300086,-0.0263519994914531,-0.9957639575004578,-0.0656360015273094,-3.447499990463257,-0.3149999976158142,0.699999988079071
4.697190504197931,-0.0222040005028247,-0.9901520013809204,-0.0592919997870922,-2.887500047683716,-0.7350000143051147,0.9100000262260436
4.717350120095777,-0.0148839997127652,-0.990884006023407,-0.0607559978961944,-2.9749999046325684,-1.1200000047683716,1.347499966621399
4.737509735993622,-0.0146399997174739,-1.0030839443206787,-0.0705159977078437,-3.150000095367432,-1.1375000476837158,1.995000004768372
4.757669351891467,-0.0214719995856285,-1.0213840007781982,-0.085156001150608,-2.555000066757202,-1.190000057220459,2.887500047683716
4.777828967789312,-0.0270840004086494,-1.0155279636383057,-0.0941839963197708,-0.4900000095367431,-1.0149999856948853,3.622499942779541
4.797988583687157,-0.0256199985742568,-0.998203992843628,-0.1068719998002052,1.0674999952316284,-0.4724999964237213,4.322500228881836
4.818148199585003,-0.0153719997033476,-0.9850279688835144,-0.1137039959430694,1.6449999809265137,0.1400000005960464,4.304999828338623
4.838307815482848,-0.006343999877572,-0.9886879920959472,-0.1180959939956665,0.5774999856948853,1.3300000429153442,3.640000104904175
4.858467431380693,-0.0107359997928142,-1.0003999471664429,-0.1198039948940277,-0.2975000143051147,2.817500114440918,2.362499952316284
4.878627047278538,-0.028303999453783,-1.0025960206985474,-0.1185839995741844,0.3499999940395355,3.377500057220459,0.5950000286102295
4.8987866631763834,-0.0485559999942779,-0.9994239807128906,-0.1127279996871948,1.6100000143051147,2.852499961853028,-0.6825000047683716
4.918946279074229,-0.0609999969601631,-0.9850279688835144,-0.1015039980411529,2.712500095367432,1.5225000381469729,-1.1549999713897705
4.939105894972074,-0.0631959959864616,-0.9767319560050964,-0.0919879972934722,2.257499933242798,-0.0350000001490116,-0.962499976158142
4.959265510869919,-0.0536799989640712,-0.9703879952430724,-0.0885719954967498,0.7524999976158142,-1.3825000524520874,-0.6650000214576721
4.979425126767764,-0.0390399992465972,-0.970143973827362,-0.0922319963574409,-0.8924999833106995,-2.555000066757202,-0.2975000143051147
4.9995847426656095,-0.028303999453783,-0.9840520024299622,-0.0849120020866394,-3.0975000858306885,-2.992500066757202,0.0350000001490116
5.019744358563455,-0.0243999995291233,-1.011379957199097,-0.06734399497509,-4.865000247955322,-3.447499990463257,0.1924999952316284
5.0399039744613,-0.0322079993784427,-1.0289479494094849,-0.0670999959111213,-4.375,-3.552500009536743,-0.0175000000745058
5.060063590359145,-0.0292799994349479,-1.0052800178527832,-0.0636840015649795,-1.2599999904632568,-3.150000095367432,-0.4550000131130218
5.08022320625699,-0.0239119995385408,-0.9757559895515442,-0.0678320005536079,0.5774999856948853,-2.432500123977661,-0.3675000071525574
5.1003828221548355,-0.0170799996703863,-0.9684360027313232,-0.0753960013389587,0.2975000143051147,-1.7675000429153442,-0.1050000041723251
5.120542438052681,-0.0161039996892213,-0.9852719902992249,-0.0854000002145767,-1.5399999618530271,-0.7699999809265137,0.2975000143051147
5.140702053950526,-0.0192760005593299,-1.004547953605652,-0.0832040011882782,-2.502500057220459,-0.1924999952316284,0.5425000190734863
5.160861669848371,-0.0263519994914531,-1.0125999450683594,-0.0827159956097602,-2.0824999809265137,0.4724999964237213,0.4200000166893005
5.181021285746216,-0.0317199975252151,-0.9994239807128906,-0.0817399993538856,-1.0325000286102295,1.1024999618530271,0.1924999952316284
5.2011809016440615,-0.0353799983859062,-0.990395963191986,-0.0856439992785453,-0.7175000309944153,1.662500023841858,0.2100000083446502
5.221340517541907,-0.038307998329401,-0.9923479557037354,-0.085887998342514,-0.9800000190734864,1.8899999856948853,0.4025000035762787
5.241500133439752,-0.0414799973368644,-0.9925919771194458,-0.0793000012636184,-1.1024999618530271,1.225000023841858,0.7699999809265137
5.261659749337597,-0.0417240001261234,-0.987223982810974,-0.0819839984178543,-1.5924999713897705,0.7350000143051147,0.9275000095367432
5.281819365235442,-0.0395279973745346,-0.9818559885025024,-0.0839359983801841,-2.2925000190734863,0.2800000011920929,1.1725000143051147
5.301978981133288,-0.0341599993407726,-0.9823439717292786,-0.0841799974441528,-3.220000028610229,0.1924999952316284,1.399999976158142
5.322138597031133,-0.0351359993219375,-0.990395963191986,-0.0824719965457916,-4.112500190734863,0.1574999988079071,1.5750000476837158
5.342298212928978,-0.0366000011563301,-0.995519995689392,-0.0768599957227706,-4.235000133514404,-0.1574999988079071,1.2424999475479126
5.362457828826823,-0.0366000011563301,-0.993079960346222,-0.0753960013389587,-3.902499914169312,-0.3149999976158142,0.8575000166893005
5.382617444724668,-0.0448959991335868,-0.986735999584198,-0.0814960002899169,-3.6575000286102295,-0.4375,0.875
5.402777060622514,-0.0314759984612464,-0.985759973526001,-0.0771040022373199,-3.7799999713897705,-0.4550000131130218,1.2074999809265137
5.422936676520359,-0.0256199985742568,-0.9794159531593324,-0.0763719975948333,-3.990000009536743,-0.0700000002980232,1.5399999618530271
5.443096292418204,-0.0251320004463195,-0.990395963191986,-0.0849120020866394,-5.425000190734863,0.332500010728836,2.0999999046325684
5.463255908316049,-0.0180559996515512,-0.9884439706802368,-0.0785679966211319,-5.792500019073486,1.0674999952316284,2.2925000190734863
5.483415524213894,-0.0243999995291233,-0.9918599724769592,-0.0812520012259483,-6.300000190734863,1.8200000524520876,2.327500104904175
5.50357514011174,-0.0224479995667934,-0.9921039938926696,-0.0739319995045661,-6.492499828338623,2.134999990463257,2.275000095367432
5.523734756009585,-0.0309880003333091,-0.985759973526001,-0.0646599978208541,-6.667500019073486,2.240000009536743,2.257499933242798
5.54389437190743,-0.0400159992277622,-0.9884439706802368,-0.06734399497509,-7.349999904632568,1.4524999856948853,2.345000028610229
5.564053987805275,-0.0395279973745346,-0.9862479567527772,-0.0753960013389587,-7.017499923706055,1.190000057220459,2.432500123977661
5.5842136037031205,-0.0331839993596077,-0.9823439717292786,-0.0832040011882782,-6.860000133514404,1.2949999570846558,2.625
5.604373219600966,-0.0258639995008707,-0.9874680042266846,-0.0912560001015663,-7.070000171661377,1.75,2.9049999713897705
5.624532835498811,-0.0226919986307621,-0.9862479567527772,-0.0861319974064827,-6.702499866485596,2.117500066757202,2.799999952316284
5.644692451396656,-0.0268399994820356,-0.9813680052757264,-0.0932080000638961,-6.807499885559082,2.887500047683716,2.5199999809265137
5.664852067294501,-0.0344039984047412,-0.9823439717292786,-0.0912560001015663,-7.28000020980835,3.692500114440918,2.5374999046325684
5.6850116831923465,-0.0422119982540607,-0.9842959642410278,-0.0961359962821006,-7.559999942779541,3.849999904632568,2.7300000190734863
5.705171299090192,-0.047335997223854,-0.9796599745750428,-0.1012599989771843,-7.822500228881836,3.430000066757202,3.009999990463257
5.725330914988037,-0.0483120009303092,-0.9786840081214904,-0.1049199998378753,-8.417500495910645,2.870000123977661,3.447499990463257
5.745490530885882,-0.0461159981787204,-0.961359977722168,-0.1093119978904724,-8.662500381469727,2.414999961853028,3.745000123977661
5.765650146783727,-0.0387960001826286,-0.9496479630470276,-0.1115079969167709,-10.202500343322754,2.450000047683716,4.497499942779541
5.7858097626815725,-0.033671997487545,-0.9535520076751708,-0.1090679988265037,-12.967499732971191,3.202500104904175,5.460000038146973
5.805969378579418,-0.0361119993031024,-0.9598959684371948,-0.1107759997248649,-15.4350004196167,4.09499979019165,5.792500019073486
5.826128994477263,-0.0468479990959167,-0.9711199998855592,-0.1085800006985664,-17.237499237060547,4.340000152587891,5.547500133514404
5.846288610375108,-0.0641719996929168,-0.9796599745750428,-0.1222440004348754,-16.520000457763672,3.5350000858306885,4.287499904632568
5.866448226272953,-0.0605119988322258,-0.9772199988365172,-0.1280999928712844,-15.539999961853027,2.7300000190734863,4.445000171661377
5.886607842170799,-0.0544119998812675,-0.9725840091705322,-0.1263919919729232,-15.102499961853027,1.837499976158142,4.917500019073486
5.906767458068644,-0.0514839999377727,-0.966484010219574,-0.1322479993104934,-15.172499656677246,1.3125,5.372499942779541
5.926927073966489,-0.0409919992089271,-0.952575981616974,-0.1254159957170486,-15.505000114440918,1.1200000047683716,6.002500057220459
5.947086689864334,-0.0407480001449584,-0.9462319612503052,-0.1210239976644516,-16.852500915527344,1.6449999809265137,6.772500038146973
5.967246305762179,-0.0424560010433197,-0.9511119723320008,-0.1161440014839172,-18.690000534057617,2.5374999046325684,7.349999904632568
5.987405921660025,-0.0453839972615242,-0.9596520066261292,-0.1200480014085769,-20.05500030517578,3.5350000858306885,7.559999942779541
6.00756553755787,-0.0375759974122047,-0.9496479630470276,-0.1222440004348754,-20.14249992370605,4.287499904632568,7.210000038146973
6.027725153455715,-0.0397720001637935,-0.9396439790725708,-0.1278560012578964,-20.63249969482422,5.09250020980835,6.929999828338623
6.04788476935356,-0.0424560010433197,-0.9318360090255736,-0.1322479993104934,-21.489999771118164,5.179999828338623,6.40500020980835
6.068044385251405,-0.0563639998435974,-0.933299958705902,-0.13468798995018,-22.71500015258789,4.795000076293945,5.949999809265137
6.088204001149251,-0.0639280006289482,-0.9381799697875975,-0.1337119936943054,-23.99250030517578,3.377500057220459,5.635000228881836
6.108363617047096,-0.0568519979715347,-0.9357399940490724,-0.13468798995018,-24.65749931335449,2.240000009536743,5.670000076293945
6.128523232944941,-0.0483120009303092,-0.9196360111236572,-0.142984002828598,-25.427499771118164,1.0850000381469729,5.512499809265137
6.148682848842786,-0.0444080010056495,-0.9108519554138184,-0.1456679999828338,-27.247499465942383,0.0525000020861625,5.320000171661377
6.1688424647406315,-0.0461159981787204,-0.9096319675445556,-0.1539639979600906,-29.68000030517578,0.0350000001490116,5.284999847412109
6.189002080638477,-0.0446520000696182,-0.9103639721870422,-0.1651879996061325,-31.255001068115234,-0.0175000000745058,5.337500095367432
6.209161696536322,-0.0456280000507831,-0.8991400003433228,-0.1705559939146042,-31.850000381469727,0.0350000001490116,5.897500038146973
6.229321312434167,-0.057583998888731,-0.8954799771308899,-0.1571359932422638,-32.602500915527344,-0.7524999976158142,6.965000152587891
6.249480928332012,-0.0707599967718124,-0.9020679593086244,-0.1586000025272369,-33.75749969482422,-2.765000104904175,7.647500038146973
6.2696405442298575,-0.0646599978208541,-0.9023119807243348,-0.1798280030488968,-33.897499084472656,-3.9375,8.050000190734863
6.289800160127703,-0.0585599988698959,-0.8835240006446838,-0.1925159990787506,-32.602500915527344,-4.09499979019165,8.539999961853027
6.309959776025548,-0.0534359999001026,-0.8583920001983643,-0.2066679894924163,-31.63999938964844,-3.954999923706055,9.537500381469728
6.330119391923393,-0.056607998907566,-0.8339920043945312,-0.2239919900894165,-31.692501068115234,-2.9749999046325684,10.97249984741211
6.350279007821238,-0.075883999466896,-0.8276479840278625,-0.2459519952535629,-32.70750045776367,-2.3975000381469727,12.827500343322754
6.3704386237190835,-0.0824719965457916,-0.8105679750442505,-0.257420003414154,-31.95499992370605,-3.009999990463257,14.297499656677246
6.390598239616929,-0.0775920003652572,-0.8208159804344177,-0.2625440061092376,-32.95249938964844,-2.345000028610229,17.0625
6.410757855514774,-0.0702719986438751,-0.8649799823760986,-0.2513200044631958,-33.6349983215332,-1.2949999570846558,21.94499969482422
6.430917471412619,-0.0502640008926391,-0.9345200061798096,-0.2703520059585571,-34.037498474121094,0.4375,28.700000762939453
6.451077087310464,-0.033671997487545,-0.8559519648551941,-0.2496119886636734,-29.90749931335449,5.547500133514404,36.959999084472656
6.47123670320831,-0.0300120003521442,-0.6675840020179749,-0.2191119939088821,-25.059999465942383,14.297499656677246,33.127498626708984
6.491396319106155,-0.0663679987192154,-0.5226479768753052,-0.0100039998069405,-28.665000915527344,19.512500762939453,27.19499969482422
6.511555935004,-0.1237079948186874,-0.4860479831695556,0.1978839933872223,-41.334999084472656,17.71000099182129,24.727500915527344
6.531715550901845,-0.0854000002145767,-0.5214279890060425,0.2276519984006881,-50.907501220703125,7.840000152587891,26.70499992370605
6.55187516679969,-0.0185439996421337,-0.5016639828681946,0.1210239976644516,-51.45000076293945,5.96750020980835,28.01749992370605
6.572034782697536,0.0278159994632005,-0.342087984085083,-0.0839359983801841,-45.95500183105469,9.012499809265137,32.39250183105469
6.592194398595381,0.0602679997682571,-0.2847479879856109,-0.264739990234375,-55.19499969482422,4.269999980926514,34.98250198364258
6.612354014493226,0.0966240018606185,-0.2335079908370971,-0.2008119970560073,-50.48749923706055,10.989999771118164,23.100000381469727
6.632513630391071,0.1625040024518966,-0.234727993607521,-0.1903200000524521,-32.98749923706055,35.630001068115234,-5.389999866485596
6.652673246288916,0.1705559939146042,0.0812520012259483,-0.2383880019187927,-4.707499980926514,62.352500915527344,-18.84749984741211
6.672832862186762,-0.1341999918222427,0.1793399900197982,-0.4450559914112091,-54.51250076293945,77.26249694824219,16.572500228881836
6.692992478084607,-0.5109359622001648,-1.2663599252700806,-0.6202479600906372,-170.4149932861328,37.32749938964844,64.87249755859375
6.713152093982452,-0.7115039825439453,-0.6719759702682495,-0.4657959938049316,-68.1624984741211,-15.207500457763672,58.29249954223633
6.733311709880297,-0.9603840112686156,-0.0241560004651546,-0.6156119704246521,-67.74250030517578,-64.61000061035156,74.07749938964844
6.7534713257781425,-0.790071964263916,0.1000399962067604,-0.998203992843628,-150.11500549316406,-67.63749694824219,70.55999755859375
6.773630941675988,-0.5638839602470398,-0.6980839967727661,-1.2390320301055908,-263.1824951171875,-40.23250198364258,80.1675033569336
6.793790557573833,-0.2701079845428467,-1.2612359523773191,-1.288807988166809,-266.927490234375,-36.73250198364258,64.55750274658203
6.813950173471678,0.0790559947490692,-0.7117480039596558,-0.8664439916610718,-227.81500244140625,-55.125,59.84999847412109
6.834109789369523,-0.0300120003521442,-0.4584759771823883,-0.7659159898757935,-262.1675109863281,-83.6500015258789,95.76000213623048
6.8542694052673685,-0.5938959717750549,-0.3252519965171814,-0.9523319602012634,-254.625,-114.41500091552734,148.7675018310547
6.874429021165214,-3.405751943588257,0.3313519954681396,-4.015995979309082,-179.1300048828125,209.24749755859372,256.8999938964844
6.894588637063059,1.1572920083999634,-0.5675439834594727,1.0272400379180908,-26.127500534057617,193.97000122070312,-22.61000061035156
6.914748252960904,0.7066239714622498,0.5829159617424011,-1.977131962776184,-199.18499755859372,-230.26499938964844,22.90749931335449
6.934907868858749,-0.8274039626121521,0.7639639973640442,-1.9966520071029663,-225.6625061035156,-247.2050018310547,56.45500183105469
6.9550674847565945,-0.9069479703903198,-0.0739319995045661,-2.024711847305298,-196.8925018310547,-142.6074981689453,67.76000213623047
6.97522710065444,-0.9315919876098632,0.2278959900140762,-2.114016056060791,-192.4824981689453,-80.30750274658203,73.08000183105469
6.995386716552285,-0.969655990600586,0.3154920041561126,-1.8553760051727293,-167.5625,-68.04000091552734,63.17499923706055
7.01554633245013,-0.925491988658905,0.5716919898986816,-1.5008440017700195,-125.8249969482422,-48.247501373291016,57.34749984741211
7.035705948347975,-0.8415560126304626,0.6919839978218079,-1.3512719869613647,-92.5749969482422,-15.207500457763672,51.1349983215332
7.055865564245821,-0.7056480050086975,0.6600199937820435,-1.258795976638794,-48.47499847412109,46.462501525878906,40.67000198364258
7.076025180143666,-0.6324479579925537,0.6226879954338074,-1.115567922592163,-18.287500381469727,57.38249969482422,34.66749954223633
7.096184796041511,-0.5441200137138367,0.6117079854011536,-0.9076799750328064,0.0350000001490116,60.025001525878906,31.989999771118164
7.116344411939356,-0.4614039957523346,0.6134160161018372,-0.7466399669647217,2.380000114440918,60.74250030517578,29.5575008392334
7.136504027837201,-0.4440799951553345,0.6056079864501953,-0.655627965927124,-8.662500381469727,60.900001525878906,25.96999931335449
7.156663643735047,-0.4147999882698059,0.5848680138587952,-0.6097559928894043,-28.0,56.4900016784668,21.665000915527344
7.176823259632892,-0.3935720026493072,0.59170001745224,-0.5716919898986816,-27.352500915527344,48.93000030517578,17.149999618530273
7.196982875530737,-0.3442839980125427,0.4738479852676391,-0.5255759954452515,-25.497499465942383,40.98500061035156,11.024999618530272
7.217142491428582,-0.3411119878292084,0.4057720005512237,-0.4872680008411407,-34.369998931884766,31.167499542236328,2.870000123977661
7.237302107326427,-0.3647799789905548,0.3159799873828888,-0.4589639902114868,-30.537500381469727,23.537500381469727,-0.8924999833106995
7.257461723224273,-0.3550199866294861,0.2603479921817779,-0.4043079912662506,-23.34499931335449,20.842500686645508,3.622499942779541
7.277621339122118,-0.2366800010204315,0.2803559899330139,-0.4269999861717224,-11.88249969482422,21.84000015258789,6.300000190734863
7.297780955019963,-0.2115480005741119,0.358924001455307,-0.4753119945526123,1.8550000190734863,18.5674991607666,3.447499990463257
7.317940570917808,-0.240339994430542,0.4452999830245971,-0.5509520173072815,4.164999961853027,12.670000076293944,2.6075000762939453
7.3381001868156535,-0.2242359966039657,0.4511559903621673,-0.6758800148963928,2.0299999713897705,9.800000190734863,4.375
7.358259802713499,-0.2652280032634735,0.4255359768867492,-0.7842159867286682,0.7699999809265137,10.5,6.894999980926514
7.378419418611344,-0.2718159854412079,0.4189479947090149,-0.8732759952545166,0.8224999904632568,14.892499923706056,10.237500190734863
7.398579034509189,-0.3032920062541961,0.4372479915618896,-0.9486719965934752,3.7274999618530273,22.26000022888184,13.824999809265137
7.418738650407034,-0.3850319981575012,0.4389559924602508,-1.0223599672317505,7.840000152587891,27.8075008392334,14.9975004196167
7.4388982663048795,-0.3957679867744446,0.447983980178833,-1.0823839902877808,9.012499809265137,29.575000762939453,14.06999969482422
7.459057882202725,-0.3823480010032654,0.4350519776344299,-1.146799921989441,10.010000228881836,27.8075008392334,10.832500457763672
7.47921749810057,-0.3818599879741668,0.4313919842243194,-1.1460679769515991,14.157500267028809,24.27250099182129,5.862500190734863
7.499377113998415,-0.3325719833374023,0.4633559882640838,-1.1009279489517212,20.7549991607666,20.3174991607666,2.6600000858306885
7.51953672989626,-0.297435998916626,0.4528639912605285,-0.9972279667854308,26.18000030517578,20.8075008392334,1.995000004768372
7.5396963457941055,-0.2781600058078766,0.4023559987545013,-0.9264679551124572,29.81999969482422,22.96000099182129,2.345000028610229
7.559855961691951,-0.2664479911327362,0.3142719864845276,-0.8947479724884033,31.045000076293945,24.71000099182129,2.992500066757202
7.580015577589796,-0.2586399912834167,0.2791360020637512,-0.8744959831237793,30.677499771118164,24.342500686645508,3.1675000190734863
7.600175193487641,-0.2369239926338195,0.2952399849891662,-0.8825479745864868,27.63249969482422,22.9424991607666,2.345000028610229
7.620334809385486,-0.2125239968299865,0.3269599974155426,-0.8896239995956421,21.38500022888184,18.917499542236328,1.8025000095367432
7.640494425283332,-0.2178919911384582,0.3416000008583069,-0.8771799802780151,14.210000038146973,10.149999618530272,1.5225000381469729
7.660654041181177,-0.2559559941291809,0.2945079803466797,-0.8976759910583496,-0.8224999904632568,-3.7100000381469727,1.3125
7.680813657079022,-0.2469279915094375,0.2913359999656677,-0.8923079967498779,-6.142499923706055,-6.545000076293945,0.9449999928474426
7.700973272976867,-0.2386319935321808,0.3118319809436798,-0.852292001247406,-8.802499771118164,-9.55500030517578,0.2100000083446502
7.721132888874712,-0.234484001994133,0.2842600047588348,-0.8432639837265015,-9.572500228881836,-11.672499656677246,-0.4375
7.741292504772558,-0.2181359976530075,0.2627879977226257,-0.8598560094833374,-9.537500381469728,-11.112500190734863,0.2275000065565109
7.761452120670403,-0.1956879943609237,0.2969479858875274,-0.8461920022964478,-6.667500019073486,-8.680000305175781,0.3675000071525574
7.781611736568248,-0.2457079887390136,0.3252519965171814,-0.8603439927101135,-4.007500171661377,-7.244999885559082,-0.5249999761581421
7.801771352466093,-0.2410719990730285,0.3169559836387634,-0.8708359599113464,-2.414999961853028,-6.702499866485596,-1.627500057220459
7.821930968363938,-0.2391199916601181,0.3284240067005157,-0.8854759931564331,-0.9449999928474426,-4.252500057220459,-1.924999952316284
7.842090584261784,-0.253271996974945,0.3452599942684173,-0.9091439843177797,0.3849999904632568,-2.362499952316284,-2.1875
7.862250200159629,-0.2644959986209869,0.3540439903736114,-0.9257360100746156,1.5399999618530271,-1.9075000286102293,-2.484999895095825
7.882409816057474,-0.2676680088043213,0.3557519912719726,-0.9318360090255736,2.362499952316284,-2.134999990463257,-2.6424999237060547
7.902569431955319,-0.2652280032634735,0.3528240025043487,-0.93012797832489,3.622499942779541,-2.7300000190734863,-2.817500114440918
7.9227290478531645,-0.2654719948768616,0.3520919978618622,-0.9206119775772096,4.707499980926514,-2.940000057220459,-2.922499895095825
7.94288866375101,-0.2632759809494018,0.3476999998092651,-0.9088999629020692,4.795000076293945,-2.817500114440918,-2.6424999237060547
7.963048279648855,-0.2618120014667511,0.3376959860324859,-0.8827919960021973,3.990000009536743,-3.150000095367432,-2.309999942779541
7.9832078955467,-0.257420003414154,0.3242760002613067,-0.8693720102310181,3.307500123977661,-2.922499895095825,-1.6974999904632568
8.003367511444544,-0.2625440061092376,0.3411119878292084,-0.8615639805793762,2.012500047683716,-3.0450000762939453,-1.0674999952316284
8.023527127342389,-0.2627879977226257,0.3350119888782501,-0.867419958114624,0.2450000047683715,-3.325000047683716,-0.5425000190734863
8.043686743240233,-0.2627879977226257,0.3240320086479187,-0.8730319738388062,-1.3125,-3.4649999141693115,-0.3675000071525574
8.063846359138077,-0.2637639939785003,0.317931979894638,-0.8722999691963196,-1.7324999570846558,-3.762500047683716,-0.5074999928474426
8.084005975035922,-0.2657159864902496,0.3174439966678619,-0.8703479766845703,-1.225000023841858,-3.762500047683716,-0.7524999976158142
8.104165590933766,-0.268887996673584,0.3196399807929992,-0.8696159720420837,-0.1400000005960464,-3.220000028610229,-0.9100000262260436
8.12432520683161,-0.2740119993686676,0.3189080059528351,-0.8727880120277405,0.8400000333786011,-2.3975000381469727,-0.8924999833106995
8.144484822729455,-0.2762079834938049,0.3203719854354858,-0.8810839653015137,1.4874999523162842,-1.399999976158142,-0.7175000309944153
8.164644438627299,-0.2754760086536407,0.3254959881305694,-0.8930400013923645,1.7324999570846558,-0.4375,-0.5950000286102295
8.184804054525143,-0.2781600058078766,0.3274479806423187,-0.9006040096282959,1.8025000095367432,0.2275000065565109,-0.4724999964237213
8.204963670422988,-0.2781600058078766,0.326227992773056,-0.9027999639511108,1.6974999904632568,0.7524999976158142,-0.332500010728836
8.225123286320832,-0.2771840095520019,0.326227992773056,-0.901091992855072,1.3825000524520874,1.2949999570846558,-0.1225000023841857
8.245282902218676,-0.2762079834938049,0.3289119899272918,-0.8993839621543884,1.190000057220459,1.8025000095367432,0.0175000000745058
8.26544251811652,-0.2683999836444855,0.3257399797439575,-0.8891359567642212,0.8575000166893005,2.065000057220459,0.1225000023841857
8.285602134014365,-0.2657159864902496,0.3240320086479187,-0.8854759931564331,0.332500010728836,2.047499895095825,0.2100000083446502
8.30576174991221,-0.264983981847763,0.3269599974155426,-0.8874279856681824,0.5774999856948853,2.117500066757202,0.1749999970197677
8.325921365810053,-0.2632759809494018,0.3269599974155426,-0.8832799792289734,0.262499988079071,1.9424999952316284,0.1400000005960464
8.346080981707898,-0.2640079855918884,0.3276920020580292,-0.884988009929657,0.1574999988079071,1.4524999856948853,0.1050000041723251
8.366240597605742,-0.264739990234375,0.3284240067005157,-0.8893799781799316,0.0525000020861625,0.9975000023841858,0.0175000000745058
8.386400213503586,-0.2652280032634735,0.3294000029563904,-0.8940159678459167,0.1225000023841857,0.5249999761581421,-0.1400000005960464
8.40655982940143,-0.2666919827461242,0.3298879861831665,-0.8964560031890869,0.2275000065565109,0.1574999988079071,-0.2975000143051147
8.426719445299275,-0.2683999836444855,0.3296439945697784,-0.8979200124740601,0.3849999904632568,-0.262499988079071,-0.4200000166893005
8.44687906119712,-0.2698639929294586,0.3279359936714172,-0.8974319696426392,0.4550000131130218,-0.5074999928474426,-0.4550000131130218
8.467038677094964,-0.2710839807987213,0.3269599974155426,-0.896943986415863,0.4375,-0.5774999856948853,-0.4200000166893005
8.487198292992808,-0.2698639929294586,0.3259840011596679,-0.8964560031890869,0.4550000131130218,-0.4724999964237213,-0.3849999904632568
8.507357908890652,-0.268887996673584,0.3252519965171814,-0.8925519585609436,0.3499999940395355,-0.4025000035762787,-0.2975000143051147
8.527517524788497,-0.2701079845428467,0.3233000040054321,-0.8896239995956421,0.1574999988079071,-0.332500010728836,-0.2275000065565109
8.547677140686341,-0.269131988286972,0.322079986333847,-0.8893799781799316,0.0525000020861625,-0.1749999970197677,-0.1924999952316284
8.567836756584185,-0.2696200013160705,0.3235439956188202,-0.8884040117263794,0.0175000000745058,-0.0700000002980232,-0.1749999970197677
8.58799637248203,-0.2696200013160705,0.3242760002613067,-0.8879159688949585,0.1050000041723251,-0.0700000002980232,-0.2100000083446502
8.608155988379874,-0.2693759799003601,0.3242760002613067,-0.888159990310669,0.1574999988079071,0.0525000020861625,-0.1749999970197677
8.628315604277718,-0.269131988286972,0.3257399797439575,-0.8884040117263794,0.2450000047683715,0.1225000023841857,-0.2275000065565109
8.648475220175563,-0.2686440050601959,0.3259840011596679,-0.8896239995956421,0.262499988079071,0.1924999952316284,-0.2450000047683715
8.668634836073407,-0.2701079845428467,0.3269599974155426,-0.8893799781799316,0.3849999904632568,0.1749999970197677,-0.262499988079071
8.688794451971251,-0.2693759799003601,0.3274479806423187,-0.8905999660491943,0.332500010728836,0.2800000011920929,-0.2800000011920929
8.708954067869096,-0.2703520059585571,0.3279359936714172,-0.8908439874649048,0.3675000071525574,0.332500010728836,-0.2275000065565109
8.72911368376694,-0.2701079845428467,0.3279359936714172,-0.8913319706916809,0.4025000035762787,0.4900000095367431,-0.1574999988079071
8.749273299664784,-0.2683999836444855,0.3274479806423187,-0.8930400013923645,0.4200000166893005,0.612500011920929,-0.1400000005960464
8.769432915562628,-0.2686440050601959,0.3276920020580292,-0.8923079967498779,0.4550000131130218,0.612500011920929,-0.1400000005960464
8.789592531460473,-0.2681559920310974,0.326227992773056,-0.8923079967498779,0.3849999904632568,0.6474999785423279,-0.1050000041723251
8.809752147358317,-0.2679120004177093,0.3254959881305694,-0.891819953918457,0.3675000071525574,0.5950000286102295,-0.0874999985098838
8.829911763256161,-0.2683999836444855,0.3257399797439575,-0.8905999660491943,0.3149999976158142,0.5249999761581421,-0.1225000023841857
8.850071379154006,-0.2686440050601959,0.3254959881305694,-0.8913319706916809,0.262499988079071,0.3849999904632568,-0.1050000041723251
8.87023099505185,-0.2681559920310974,0.3254959881305694,-0.8913319706916809,0.2800000011920929,0.3675000071525574,-0.1924999952316284
8.890390610949694,-0.2671799957752228,0.3252519965171814,-0.8915759921073914,0.2800000011920929,0.3675000071525574,-0.2100000083446502
8.910550226847539,-0.2674239873886108,0.3257399797439575,-0.8898679614067078,0.2450000047683715,0.2800000011920929,-0.2100000083446502
8.930709842745383,-0.2676680088043213,0.3257399797439575,-0.8913319706916809,0.2100000083446502,0.2800000011920929,-0.1924999952316284
8.950869458643227,-0.2679120004177093,0.3272039890289306,-0.8920639753341675,0.1574999988079071,0.1574999988079071,-0.2100000083446502
8.971029074541072,-0.269131988286972,0.3274479806423187,-0.8930400013923645,0.0700000002980232,0.0700000002980232,-0.1749999970197677
8.991188690438916,-0.268887996673584,0.3264719843864441,-0.892795979976654,0.1400000005960464,0.1574999988079071,-0.1574999988079071
9.01134830633676,-0.2683999836444855,0.3264719843864441,-0.8879159688949585,0.1225000023841857,0.2100000083446502,-0.1225000023841857
9.031507922234605,-0.268887996673584,0.3242760002613067,-0.8874279856681824,-0.1749999970197677,0.3675000071525574,-0.0700000002980232
9.051667538132449,-0.269131988286972,0.3252519965171814,-0.8913319706916809,0.3499999940395355,0.4025000035762787,-0.1225000023841857
9.071827154030293,-0.2681559920310974,0.3259840011596679,-0.8884040117263794,0.3499999940395355,0.3499999940395355,-0.1400000005960464
9.091986769928138,-0.2686440050601959,0.3269599974155426,-0.8893799781799316,0.2450000047683715,0.3675000071525574,-0.1749999970197677
9.112146385825982,-0.2676680088043213,0.3279359936714172,-0.8930400013923645,0.2800000011920929,0.3675000071525574,-0.2100000083446502
9.132306001723826,-0.269131988286972,0.3276920020580292,-0.8932839632034302,0.4025000035762787,0.3849999904632568,-0.1749999970197677
9.15246561762167,-0.2686440050601959,0.3284240067005157,-0.8932839632034302,0.4550000131130218,0.4724999964237213,-0.1924999952316284
9.172625233519515,-0.2676680088043213,0.3281799852848053,-0.8935279846191406,0.5074999928474426,0.4025000035762787,-0.2275000065565109
9.19278484941736,-0.2681559920310974,0.3269599974155426,-0.8932839632034302,0.4550000131130218,0.4200000166893005,-0.2100000083446502
9.212944465315204,-0.2679120004177093,0.3264719843864441,-0.892795979976654,0.3499999940395355,0.3849999904632568,-0.2100000083446502
9.233104081213048,-0.2681559920310974,0.3269599974155426,-0.8920639753341675,0.3149999976158142,0.2800000011920929,-0.1924999952316284
9.253263697110892,-0.2671799957752228,0.3259840011596679,-0.8915759921073914,0.2100000083446502,0.2450000047683715,-0.1574999988079071
9.273423313008736,-0.2666919827461242,0.3252519965171814,-0.8903560042381287,0.1050000041723251,0.1924999952316284,-0.1924999952316284
9.29358292890658,-0.2676680088043213,0.3240320086479187,-0.8901119828224182,0.0700000002980232,0.262499988079071,-0.1574999988079071
9.313742544804425,-0.2674239873886108,0.3257399797439575,-0.8905999660491943,0.1400000005960464,0.2800000011920929,-0.1400000005960464
9.33390216070227,-0.2674239873886108,0.3257399797439575,-0.8901119828224182,0.2100000083446502,0.332500010728836,-0.1924999952316284
9.354061776600114,-0.2676680088043213,0.3272039890289306,-0.8910880088806152,0.2800000011920929,0.332500010728836,-0.1924999952316284
9.374221392497958,-0.268887996673584,0.3267160058021545,-0.8915759921073914,0.3149999976158142,0.2800000011920929,-0.1924999952316284
9.394381008395802,-0.2683999836444855,0.3272039890289306,-0.8930400013923645,0.3149999976158142,0.3675000071525574,-0.2100000083446502
9.414540624293647,-0.2674239873886108,0.3276920020580292,-0.8930400013923645,0.4025000035762787,0.2800000011920929,-0.2100000083446502
9.434700240191491,-0.2676680088043213,0.3272039890289306,-0.8925519585609436,0.4025000035762787,0.262499988079071,-0.2450000047683715
9.454859856089335,-0.2666919827461242,0.3264719843864441,-0.892795979976654,0.3849999904632568,0.3675000071525574,-0.2275000065565109
9.47501947198718,-0.2683999836444855,0.326227992773056,-0.892795979976654,0.332500010728836,0.3499999940395355,-0.1924999952316284
9.495179087885024,-0.2664479911327362,0.3252519965171814,-0.8913319706916809,0.2800000011920929,0.4375,-0.1574999988079071
9.515338703782868,-0.2662039995193481,0.3247639834880829,-0.8913319706916809,0.262499988079071,0.2975000143051147,-0.1749999970197677
9.535498319680713,-0.2674239873886108,0.3252519965171814,-0.8915759921073914,0.2800000011920929,0.2100000083446502,-0.1749999970197677
9.555657935578557,-0.2669360041618347,0.3250080049037933,-0.8905999660491943,0.1749999970197677,0.2100000083446502,-0.1924999952316284
9.575817551476401,-0.2659600079059601,0.3247639834880829,-0.8908439874649048,0.1749999970197677,0.1924999952316284,-0.1574999988079071
9.595977167374246,-0.2676680088043213,0.326227992773056,-0.8915759921073914,0.1924999952316284,0.1749999970197677,-0.1924999952316284
9.61613678327209,-0.2669360041618347,0.3267160058021545,-0.892795979976654,0.262499988079071,0.2100000083446502,-0.1924999952316284
9.636296399169934,-0.2666919827461242,0.3269599974155426,-0.891819953918457,0.262499988079071,0.2800000011920929,-0.1924999952316284
9.656456015067779,-0.2674239873886108,0.3267160058021545,-0.8908439874649048,0.1574999988079071,0.2975000143051147,-0.1574999988079071
9.676615630965623,-0.2676680088043213,0.3269599974155426,-0.8923079967498779,0.2100000083446502,0.262499988079071,-0.1924999952316284
9.696775246863467,-0.2669360041618347,0.3267160058021545,-0.8920639753341675,0.262499988079071,0.2275000065565109,-0.2100000083446502
9.716934862761311,-0.2679120004177093,0.3267160058021545,-0.8920639753341675,0.262499988079071,0.262499988079071,-0.2100000083446502
9.737094478659156,-0.2679120004177093,0.326227992773056,-0.8923079967498779,0.2800000011920929,0.3149999976158142,-0.1574999988079071
9.757254094557,-0.2676680088043213,0.3257399797439575,-0.8923079967498779,0.3149999976158142,0.332500010728836,-0.1574999988079071
9.777413710454844,-0.2664479911327362,0.3259840011596679,-0.8896239995956421,0.2450000047683715,0.262499988079071,-0.1749999970197677
9.797573326352689,-0.2679120004177093,0.3259840011596679,-0.891819953918457,0.1400000005960464,0.3499999940395355,-0.1574999988079071
9.817732942250533,-0.2669360041618347,0.3272039890289306,-0.8930400013923645,0.2275000065565109,0.4025000035762787,-0.1574999988079071
9.837892558148377,-0.2671799957752228,0.3257399797439575,-0.8920639753341675,0.332500010728836,0.4375,-0.1574999988079071
9.858052174046222,-0.264983981847763,0.3242760002613067,-0.8827919960021973,-0.0175000000745058,0.3675000071525574,-0.1050000041723251
9.878211789944066,-0.2676680088043213,0.3254959881305694,-0.8942599892616272,0.1749999970197677,0.5074999928474426,-0.1050000041723251
9.89837140584191,-0.2657159864902496,0.326227992773056,-0.8901119828224182,0.3849999904632568,0.4724999964237213,-0.1924999952316284
9.918531021739755,-0.2662039995193481,0.3264719843864441,-0.8896239995956421,0.2800000011920929,0.3499999940395355,-0.1924999952316284
9.938690637637599,-0.2681559920310974,0.3272039890289306,-0.8932839632034302,0.2975000143051147,0.2450000047683715,-0.1749999970197677
9.958850253535443,-0.2686440050601959,0.3274479806423187,-0.8957239985466003,0.3499999940395355,0.2100000083446502,-0.2100000083446502
9.979009869433288,-0.2679120004177093,0.3281799852848053,-0.8957239985466003,0.4375,0.2800000011920929,-0.262499988079071
9.999169485331132,-0.2674239873886108,0.3276920020580292,-0.8952359557151794,0.5425000190734863,0.2800000011920929,-0.2450000047683715
10.019329101228976,-0.2669360041618347,0.326227992773056,-0.8935279846191406,0.5249999761581421,0.332500010728836,-0.2275000065565109
10.03948871712682,-0.2674239873886108,0.3254959881305694,-0.8920639753341675,0.4375,0.2800000011920929,-0.2100000083446502
10.059648333024665,-0.2662039995193481,0.3257399797439575,-0.8920639753341675,0.1400000005960464,0.332500010728836,-0.1400000005960464
10.07980794892251,-0.2657159864902496,0.3250080049037933,-0.8901119828224182,0.0350000001490116,0.2450000047683715,-0.1400000005960464
10.099967564820354,-0.2662039995193481,0.3252519965171814,-0.8923079967498779,0.0525000020861625,0.2450000047683715,-0.1400000005960464
10.120127180718198,-0.2664479911327362,0.326227992773056,-0.8925519585609436,0.1574999988079071,0.2975000143051147,-0.1749999970197677
10.140286796616042,-0.2654719948768616,0.326227992773056,-0.892795979976654,0.2450000047683715,0.2800000011920929,-0.2100000083446502
10.160446412513886,-0.2657159864902496,0.3264719843864441,-0.892795979976654,0.2975000143051147,0.2275000065565109,-0.2100000083446502
10.18060602841173,-0.2666919827461242,0.3274479806423187,-0.8923079967498779,0.2975000143051147,0.1050000041723251,-0.262499988079071
10.200765644309575,-0.2666919827461242,0.3272039890289306,-0.8932839632034302,0.2800000011920929,0.0874999985098838,-0.2800000011920929
10.22092526020742,-0.2659600079059601,0.3269599974155426,-0.8925519585609436,0.2275000065565109,0.0700000002980232,-0.262499988079071
10.241084876105264,-0.2666919827461242,0.3279359936714172,-0.8925519585609436,0.2100000083446502,0.0700000002980232,-0.2275000065565109
10.261244492003108,-0.2676680088043213,0.3267160058021545,-0.891819953918457,0.262499988079071,0.2100000083446502,-0.1924999952316284
10.281404107900952,-0.2674239873886108,0.3269599974155426,-0.8915759921073914,0.332500010728836,0.2100000083446502,-0.2275000065565109
10.301563723798797,-0.2666919827461242,0.3274479806423187,-0.892795979976654,0.3849999904632568,0.4200000166893005,-0.1400000005960464
10.321723339696641,-0.2664479911327362,0.326227992773056,-0.8920639753341675,0.4025000035762787,0.4724999964237213,-0.1400000005960464
10.341882955594485,-0.2664479911327362,0.3264719843864441,-0.8908439874649048,0.262499988079071,0.5774999856948853,-0.0700000002980232
10.36204257149233,-0.2652280032634735,0.3257399797439575,-0.8893799781799316,0.0874999985098838,0.5074999928474426,-0.0525000020861625
10.382202187390174,-0.2644959986209869,0.3252519965171814,-0.8886479735374451,0.0175000000745058,0.4200000166893005,-0.0350000001490116
10.402361803288018,-0.2662039995193481,0.3254959881305694,-0.8923079967498779,0.1400000005960464,0.2975000143051147,-0.1400000005960464
10.422521419185863,-0.2662039995193481,0.3259840011596679,-0.8935279846191406,0.2275000065565109,0.3149999976158142,-0.1749999970197677
10.442681035083707,-0.2659600079059601,0.326227992773056,-0.8935279846191406,0.2800000011920929,0.2800000011920929,-0.2100000083446502
10.462840650981551,-0.264739990234375,0.3274479806423187,-0.8925519585609436,0.2275000065565109,0.3149999976158142,-0.2275000065565109
10.483000266879396,-0.2654719948768616,0.3267160058021545,-0.8915759921073914,0.1924999952316284,0.4025000035762787,-0.1400000005960464
10.50315988277724,-0.2654719948768616,0.3259840011596679,-0.8903560042381287,0.0350000001490116,0.4900000095367431,-0.1050000041723251
10.523319498675084,-0.2664479911327362,0.3264719843864441,-0.8910880088806152,-0.0175000000745058,0.5249999761581421,-0.0700000002980232
10.543479114572929,-0.2664479911327362,0.3284240067005157,-0.8937720060348511,0.0700000002980232,0.4200000166893005,-0.0874999985098838
10.563638730470773,-0.2671799957752228,0.3276920020580292,-0.8947479724884033,0.2275000065565109,0.332500010728836,-0.1749999970197677
10.583798346368617,-0.2662039995193481,0.3284240067005157,-0.8945040106773376,0.262499988079071,0.1924999952316284,-0.2100000083446502
10.603957962266461,-0.2657159864902496,0.3284240067005157,-0.8932839632034302,0.2275000065565109,0.0700000002980232,-0.1924999952316284
10.624117578164306,-0.2642520070075989,0.3264719843864441,-0.8930400013923645,0.3499999940395355,0.3149999976158142,-0.1574999988079071
10.64427719406215,-0.2630319893360138,0.3250080049037933,-0.88401198387146,0.1400000005960464,0.332500010728836,-0.1050000041723251
10.664436809959994,-0.264739990234375,0.3252519965171814,-0.8930400013923645,0.0525000020861625,0.4550000131130218,-0.0700000002980232
10.684596425857839,-0.264983981847763,0.3264719843864441,-0.8901119828224182,0.3849999904632568,0.3499999940395355,-0.1924999952316284
10.704756041755683,-0.2637639939785003,0.3254959881305694,-0.8893799781799316,0.2275000065565109,0.1924999952316284,-0.1924999952316284
10.724915657653527,-0.2635200023651123,0.3276920020580292,-0.8908439874649048,0.1749999970197677,0.0350000001490116,-0.1924999952316284
10.745075273551372,-0.2642520070075989,0.3272039890289306,-0.8942599892616272,0.1225000023841857,-0.1225000023841857,-0.2450000047683715
10.765234889449216,-0.264983981847763,0.3286679983139038,-0.8937720060348511,0.0350000001490116,-0.262499988079071,-0.2450000047683715
10.78539450534706,-0.2644959986209869,0.3286679983139038,-0.8915759921073914,-0.2100000083446502,-0.3849999904632568,-0.2275000065565109
10.805554121244905,-0.2659600079059601,0.3274479806423187,-0.8957239985466003,-0.7175000309944153,-0.6299999952316284,-0.1400000005960464
10.825713737142749,-0.2674239873886108,0.3235439956188202,-0.9023119807243348,-1.627500057220459,-1.0499999523162842,-0.0175000000745058
10.845873353040593,-0.2701079845428467,0.3201279938220978,-0.8979200124740601,-3.237499952316284,-1.3825000524520874,0.2275000065565109
10.866032968938438,-0.269131988286972,0.3235439956188202,-0.8837679624557495,-5.215000152587891,-0.9975000023841858,0.7524999976158142
10.886192584836282,-0.2659600079059601,0.3289119899272918,-0.8701039552688599,-6.807499885559082,0.0175000000745058,1.4175000190734863
10.906352200734126,-0.2591280043125152,0.3318399786949157,-0.8588799834251404,-8.364999771118164,1.399999976158142,2.117500066757202
10.92651181663197,-0.2579079866409302,0.3259840011596679,-0.8598560094833374,-9.135000228881836,1.8725000619888303,2.4674999713897705
10.946671432529815,-0.2640079855918884,0.3291559815406799,-0.8754720091819763,-8.032500267028809,1.4524999856948853,2.240000009536743
10.96683104842766,-0.2652280032634735,0.3381839990615845,-0.8818159699440002,-6.387499809265137,0.8924999833106995,1.75
10.986990664325504,-0.2608360052108764,0.3425759971141815,-0.8779119849205017,-5.84499979019165,0.8400000333786011,1.75
11.007150280223348,-0.2547360062599182,0.3428199887275696,-0.8727880120277405,-5.914999961853027,0.8575000166893005,2.012500047683716
11.027309896121192,-0.2483920007944107,0.338916003704071,-0.8620519638061523,-6.125,0.4375,2.0999999046325684
11.047469512019036,-0.2483920007944107,0.3442839980125427,-0.8613199591636658,-6.877500057220459,-0.3675000071525574,2.2925000190734863
11.06762912791688,-0.2452199906110763,0.3494080007076263,-0.8552199602127075,-8.207500457763672,-2.6424999237060547,2.1875
11.087788743814725,-0.2479040026664734,0.3481879830360412,-0.8361879587173462,-10.114999771118164,-5.494999885559082,1.995000004768372
11.10794835971257,-0.2527839839458465,0.3489199876785278,-0.8198399543762207,-11.707500457763672,-6.912499904632568,1.9774999618530276
11.128107975610414,-0.2601040005683899,0.3498959839344024,-0.8239879608154297,-11.760000228881836,-5.565000057220459,2.1875
11.148267591508258,-0.261568009853363,0.3635599911212921,-0.8491199612617493,-10.079999923706056,-2.9749999046325684,2.2049999237060547
11.168427207406102,-0.2637639939785003,0.3840560019016266,-0.8659560084342957,-6.579999923706055,-2.9049999713897705,0.8224999904632568
11.188586823303947,-0.264983981847763,0.3869839906692505,-0.8805959820747375,-3.4825000762939453,-5.197500228881836,-1.1549999713897705
11.208746439201791,-0.2662039995193481,0.3879599869251251,-0.900115966796875,-1.6449999809265137,-7.28000020980835,-2.2225000858306885
11.228906055099635,-0.2952399849891662,0.3952800035476684,-0.9171959757804872,2.992500066757202,-9.25749969482422,-3.430000066757202
11.24906567099748,-0.3228119909763336,0.4040639996528625,-0.9220759868621826,3.990000009536743,-7.4375,-3.430000066757202
11.269225286895324,-0.3313519954681396,0.4065040051937103,-0.9289079904556274,4.375,-2.747499942779541,-2.4674999713897705
11.289384902793168,-0.3213479816913605,0.3947919905185699,-0.9389119744300842,5.179999828338623,1.8725000619888303,-1.3825000524520874
11.309544518691013,-0.310368001461029,0.3862519860267639,-0.936959981918335,5.740000247955322,3.255000114440918,-1.347499966621399
11.329704134588857,-0.2864559888839721,0.3760039806365967,-0.9088999629020692,5.827499866485596,1.8550000190734863,-1.8550000190734863
11.349863750486701,-0.2840159833431244,0.3416000008583069,-0.8542439937591553,6.317500114440918,-0.3675000071525574,-2.6075000762939453
11.370023366384546,-0.2886520028114319,0.3267160058021545,-0.8027600049972534,7.262499809265137,-1.0850000381469729,-2.8350000381469727
11.39018298228239,-0.2776719927787781,0.3457480072975158,-0.7981239557266235,8.609999656677246,0.2975000143051147,-2.257499933242798
11.410342598180234,-0.2698639929294586,0.3330599963665008,-0.7949519753456116,9.642499923706056,1.8025000095367432,-2.065000057220459
11.430502214078079,-0.2747440040111542,0.330375999212265,-0.7844600081443787,11.74250030517578,1.837499976158142,-2.1700000762939453
11.450661829975923,-0.2769399881362915,0.3325719833374023,-0.7856799960136414,14.227499961853027,1.75,-1.9075000286102293
11.470821445873767,-0.2786479890346527,0.3184199929237366,-0.8027600049972534,16.3799991607666,2.4674999713897705,-1.4524999856948853
11.490981061771611,-0.2762079834938049,0.31768798828125,-0.8381400108337402,16.887500762939453,3.4649999141693115,-0.8575000166893005
11.511140677669456,-0.2725479900836944,0.3269599974155426,-0.8949919939041138,15.34749984741211,5.197500228881836,0.0525000020861625
11.5313002935673,-0.2747440040111542,0.3269599974155426,-0.9284200072288512,14.140000343322754,6.212500095367432,0.1924999952316284
11.551459909465144,-0.2703520059585571,0.3245199918746948,-0.9635559916496276,13.842499732971191,5.425000190734863,-0.0525000020861625
11.571619525362989,-0.2705959975719452,0.3252519965171814,-0.9864919781684875,15.050000190734863,2.870000123977661,-0.6299999952316284
11.591779141260833,-0.264983981847763,0.3191519975662231,-0.9698999524116516,17.09749984741211,-2.309999942779541,-2.275000095367432
11.611938757158677,-0.2598600089550018,0.3169559836387634,-0.9528200030326844,18.655000686645508,-8.27750015258789,-4.567500114440918
11.632098373056522,-0.2713280022144317,0.322079986333847,-0.9764879941940308,18.059999465942383,-14.297499656677246,-6.615000247955322
11.652257988954366,-0.2879199981689453,0.3057319819927215,-0.9799039959907532,14.927499771118164,-19.739999771118164,-8.364999771118164
11.67241760485221,-0.3147599995136261,0.2845039963722229,-0.9938119649887084,11.8125,-23.76499938964844,-9.537500381469728
11.692577220750055,-0.3406240046024322,0.281819999217987,-1.0118680000305176,10.8149995803833,-25.53249931335449,-10.342499732971191
11.712736836647899,-0.3652679920196533,0.2832840085029602,-1.0211399793624878,12.442500114440918,-25.14750099182129,-11.970000267028809
11.732896452545743,-0.3811279833316803,0.2937760055065155,-0.9923479557037354,15.81999969482422,-23.887500762939453,-14.279999732971191
11.753056068443588,-0.3957679867744446,0.3108559846878052,-0.970143973827362,18.76000022888184,-21.542499542236328,-15.539999961853027
11.773215684341432,-0.4135800004005432,0.3006079792976379,-1.020651936531067,17.780000686645508,-19.075000762939453,-16.204999923706055
11.793375300239276,-0.4553039968013763,0.2962159812450409,-1.1797399520874023,11.952500343322754,-17.360000610351562,-18.84749984741211
11.81353491613712,-0.5114240050315857,0.3699039816856384,-1.386896014213562,10.045000076293944,-23.012500762939453,-23.799999237060547
11.833694532034965,-0.6224439740180969,0.5738880038261414,-1.4034879207611084,3.202500104904175,-18.53249931335449,-36.119998931884766
11.85385414793281,-0.5287479758262634,0.4797039926052093,-1.315891981124878,-18.059999465942383,-11.164999961853027,-61.96749877929688
11.874013763830654,-0.3659999966621399,0.0946719944477081,-1.4291080236434937,3.692500114440918,7.664999961853027,-91.50749969482422
11.894173379728498,-0.3257399797439575,0.061243999749422,-1.2502559423446655,184.94000244140625,37.64250183105469,-102.65499877929688
11.914332995626342,-0.6014599800109863,-0.0248879995197057,-1.3088159561157229,286.2650146484375,41.98250198364258,-84.0875015258789
11.934492611524187,-0.2052039951086044,0.3406240046024322,-0.8254519701004028,234.2375030517578,-18.270000457763672,-78.47000122070312
11.95465222742203,-0.171775996685028,0.2337519973516464,-0.9542839527130128,92.43499755859376,-76.4574966430664,18.987499237060547
11.974811843319875,-0.6953999996185303,1.4266679286956787,-2.19624400138855,193.7075042724609,106.24250030517578,89.7750015258789
11.99497145921772,-0.8095920085906982,0.047580000013113,-1.5428119897842407,49.665000915527344,114.81749725341795,-15.24250030517578
12.015131075115564,-0.2154520004987716,0.0341599993407726,-0.709551990032196,54.14500045776367,-174.4925079345703,-38.5525016784668
12.035290691013408,-0.1869039982557296,-0.185928001999855,-0.8305760025978088,72.69499969482422,-74.9000015258789,-26.915000915527344
12.055450306911252,-0.3313519954681396,0.0036599999293684,-0.8139839768409729,106.26000213623048,102.8125,-16.274999618530273
12.075609922809097,-0.5053240060806274,0.163235992193222,-0.8940159678459167,101.95500183105467,95.77750396728516,-9.3100004196167
12.095769538706941,-0.2664479911327362,0.1703120023012161,-0.6780759692192078,141.9250030517578,-9.904999732971191,-20.19499969482422
12.115929154604785,-0.4262679815292358,0.0353799983859062,-0.76664799451828,79.69499969482422,25.07749938964844,-17.342500686645508
12.13608877050263,-0.3884479999542236,-0.1117519959807396,-0.5599799752235413,61.86249923706055,16.292499542236328,-14.5600004196167
12.156248386400474,-0.4269999861717224,-0.1649439930915832,-0.5409479737281799,68.7925033569336,31.149999618530277,-11.199999809265137
12.176408002298318,-0.4169960021972656,-0.1966639906167984,-0.5409479737281799,71.19000244140625,17.010000228881836,-16.887500762939453
12.196567618196163,-0.3269599974155426,-0.1851959973573684,-0.5067880153656006,85.08499908447266,-2.2225000858306885,-23.34499931335449
12.216727234094007,-0.2893840074539184,0.0427000001072883,-0.4582319855690002,90.33499908447266,-8.802499771118164,-23.11750030517578
12.236886849991851,-0.2056919932365417,0.4823879897594452,-0.4694559872150421,41.15999984741211,-52.92000198364258,-6.107500076293945
12.257046465889696,-0.2735239863395691,0.3940599858760834,-0.729315996170044,-6.177500247955322,-20.177499771118164,17.850000381469727
12.27720608178754,-0.3411119878292084,0.1507920026779174,-0.6792960166931152,-39.602500915527344,-12.845000267028809,34.6150016784668
12.297365697685384,-0.3042680025100708,-0.1927599906921386,-0.3716119825839996,-58.69499969482422,-48.98250198364258,30.012500762939453
12.317525313583229,-0.2696200013160705,-0.4560360014438629,-0.3852759897708893,-36.34749984741211,-40.459999084472656,16.344999313354492
12.337684929481073,-0.2786479890346527,-0.4091880023479461,-0.5414360165596008,4.480000019073486,-42.73500061035156,16.25749969482422
12.357844545378917,-0.2439999878406524,-0.2281399965286255,-0.5421679615974426,26.354999542236328,-66.86750030517578,15.295000076293944
12.378004161276762,-0.2012999951839447,-0.1966639906167984,-0.5870639681816101,30.852500915527344,-49.75249862670898,7.139999866485596
12.398163777174606,-0.0919879972934722,-0.2439999878406524,-0.4472520053386688,22.46999931335449,-46.98749923706055,-1.5049999952316284
12.41832339307245,-0.0456280000507831,-0.3774679899215698,-0.3147599995136261,11.899999618530272,-23.4325008392334,-5.460000038146973
12.438483008970294,-0.2174039930105209,-0.7649399638175964,-0.440420001745224,2.7300000190734863,11.725000381469728,-20.229999542236328
12.458642624868139,-0.2969479858875274,-0.8874279856681824,-0.5404599905014038,13.6850004196167,31.815000534057617,-33.897499084472656
12.478802240765983,-0.3516039848327636,-0.913047969341278,-0.6551399827003479,27.05500030517578,38.83250045776367,-42.122501373291016
12.498961856663827,-0.5106920003890991,-1.0077199935913086,-0.8376519680023193,34.66749954223633,60.602500915527344,-56.84000015258789
12.519121472561672,-0.5265519618988037,-1.0872639417648315,-0.9145119786262512,45.290000915527344,46.35750198364258,-62.247501373291016
12.539281088459516,-0.4784840047359466,-1.0633519887924194,-0.965507984161377,52.90250015258789,28.64750099182129,-47.23250198364258
12.55944070435736,-0.427731990814209,-0.9335439801216124,-0.9877119660377502,57.81999969482422,23.957500457763672,-34.05500030517578
12.579600320255205,-0.4506679773330688,-0.8581479787826538,-0.9176839590072632,52.5,26.31999969482422,-26.950000762939453
12.599759936153049,-0.4638440012931824,-0.9076799750328064,-0.8574159741401672,37.50249862670898,23.799999237060547,-27.3700008392334
12.619919552050893,-0.4208999872207641,-0.7851920127868652,-0.8469240069389343,43.41749954223633,16.782499313354492,-29.17250061035156
12.640079167948738,-0.333547979593277,-0.7395640015602112,-0.6997919678688049,43.57500076293945,1.1024999618530271,-28.332500457763672
12.660238783846582,-0.3581919968128204,-0.798367977142334,-0.7029640078544617,44.380001068115234,7.857500076293945,-29.487499237060547
12.680398399744426,-0.3106119930744171,-0.5997520089149475,-0.6448919773101807,52.63999938964844,5.635000228881836,-30.905000686645508
12.70055801564227,-0.2725479900836944,-0.4779959917068481,-0.639523983001709,49.227500915527344,0.6825000047683716,-29.71500015258789
12.720717631540115,-0.2720600068569183,-0.4875119924545288,-0.6136599779129028,39.8650016784668,-2.047499895095825,-25.725000381469727
12.74087724743796,-0.2676680088043213,-0.5653479695320129,-0.6358639597892761,30.92250061035156,-0.5249999761581421,-22.575000762939453
12.761036863335804,-0.2357039898633957,-0.6285439729690552,-0.6736840009689331,30.520000457763672,5.005000114440918,-21.57749938964844
12.781196479233648,-0.210327997803688,-0.5604680180549622,-0.6761239767074585,31.88500022888184,8.75,-18.95249938964844
12.801356095131492,-0.2322880029678344,-0.5570520162582397,-0.720043957233429,25.059999465942383,6.527500152587891,-15.137499809265137
12.821515711029337,-0.2603479921817779,-0.6048759818077087,-0.6839320063591003,21.01749992370605,-5.057499885559082,-13.2475004196167
12.84167532692718,-0.2876760065555572,-0.6912519931793213,-0.6673399806022644,21.962499618530277,-12.6875,-16.607500076293945
12.861834942825025,-0.2095959931612014,-0.6941800117492676,-0.5831599831581116,25.53249931335449,-19.512500762939453,-24.0625
12.88199455872287,-0.1139479950070381,-0.636352002620697,-0.5214279890060425,22.5575008392334,-14.192500114440918,-30.92250061035156
12.902154174620714,-0.0195199996232986,-0.6341559886932373,-0.5694959759712219,7.857500076293945,2.345000028610229,-31.850000381469727
12.922313790518558,0.0348920002579689,-0.631227970123291,-0.6275680065155029,-4.760000228881836,15.960000038146973,-27.33500099182129
12.942473406416402,0.0153719997033476,-0.563152015209198,-0.7097960114479065,-8.75,32.70750045776367,-18.479999542236328
12.962633022314247,-0.0422119982540607,-0.541923999786377,-0.7639639973640442,-18.00749969482422,44.20500183105469,-8.855000495910645
12.982792638212091,-0.1110199987888336,-0.6988160014152527,-0.7061359882354736,-30.712499618530277,44.15250015258789,-4.462500095367432
13.002952254109935,-0.1637239903211593,-0.7851920127868652,-0.7056480050086975,-21.6299991607666,47.880001068115234,-3.8324999809265137
13.02311187000778,-0.2271640002727508,-0.750544011592865,-0.8535119891166687,-6.789999961853027,55.09000015258789,-1.225000023841858
13.043271485905624,-0.1844639927148819,-0.6575799584388733,-0.8042240142822266,16.572500228881836,36.994998931884766,1.225000023841858
13.063431101803468,-0.1822679936885833,-0.6295199990272522,-0.7280960083007812,16.957500457763672,33.35499954223633,-3.0274999141693115
13.083590717701313,-0.1615279912948608,-0.6265919804573059,-0.7751879692077637,16.782499313354492,36.959999084472656,-8.399999618530273
13.103750333599157,-0.1564040035009384,-0.6602640151977539,-0.8117879629135132,13.2475004196167,36.872501373291016,-13.142499923706056
13.123909949497001,-0.1903200000524521,-0.680027961730957,-0.8364319801330566,17.885000228881836,31.587499618530277,-10.342499732971191
13.144069565394846,-0.1551840007305145,-0.6326919794082642,-0.7961719632148743,23.940000534057617,20.020000457763672,-3.692500114440918
13.16422918129269,-0.1015039980411529,-0.6243959665298462,-0.7466399669647217,28.50749969482422,16.59000015258789,0.0350000001490116
13.184388797190534,-0.0744199976325035,-0.6790519952774048,-0.6651439666748047,36.067501068115234,16.852500915527344,-0.4200000166893005
13.204548413088379,-0.0156159996986389,-0.7527399659156799,-0.5768159627914429,43.119998931884766,15.960000038146973,0.1400000005960464
13.224708028986223,-0.0483120009303092,-0.7720159888267517,-0.5672999620437622,49.209999084472656,17.552499771118164,1.0325000286102295
13.244867644884067,-0.0609999969601631,-0.7700639963150024,-0.5982879996299744,51.747501373291016,5.179999828338623,2.502500057220459
13.265027260781912,0.013663999736309,-0.7642079591751099,-0.6326919794082642,56.244998931884766,-12.337499618530272,2.5899999141693115
13.285186876679756,0.0358680002391338,-0.7363919615745544,-0.6246399879455566,62.05500030517578,-10.762499809265137,-0.1050000041723251
13.3053464925776,0.010491999797523,-0.7351719737052917,-0.5877959728240967,61.932498931884766,-1.5575000047683716,-2.572499990463257
13.325506108475444,-0.052216000854969,-0.7727479934692383,-0.5604680180549622,58.13500213623047,12.109999656677246,-3.1675000190734863
13.345665724373289,-0.0727119967341423,-0.831063985824585,-0.5333839654922485,55.09000015258789,17.587499618530273,-1.8200000524520876
13.365825340271133,-0.1412760019302368,-0.8805959820747375,-0.5348479747772217,56.75249862670898,25.024999618530277,1.5575000047683716
13.385984956168977,-0.2122799903154373,-0.8281359672546387,-0.5258200168609619,58.76499938964844,5.425000190734863,8.260000228881836
13.406144572066822,-0.2137439996004104,-0.8720560073852539,-0.5233799815177917,55.772499084472656,-30.39750099182129,16.764999389648438
13.426304187964666,-0.3052439987659454,-1.0584720373153689,-0.5829159617424011,64.33000183105469,-54.005001068115234,23.25749969482422
13.44646380386251,-0.3137840032577514,-1.1058080196380615,-0.5407040119171143,94.7624969482422,-78.33000183105469,13.720000267028809
13.466623419760355,-0.2088640034198761,-0.9711199998855592,-0.4462759792804718,110.3375015258789,-76.75499725341797,-0.8050000071525574
13.486783035658199,-0.095891997218132,-0.8452159762382507,-0.3872279822826385,106.6449966430664,-61.21500015258789,-6.860000133514404
13.506942651556043,-0.0712479948997497,-0.8198399543762207,-0.4145559966564178,90.98249816894533,-48.82500076293945,-3.867500066757202
13.527102267453888,-0.1683599948883056,-0.8330159783363342,-0.4262679815292358,73.4124984741211,-44.834999084472656,-3.255000114440918
13.547261883351732,-0.2325319945812225,-0.8486319780349731,-0.3306199908256531,63.34999847412109,-50.61000061035156,-5.320000171661377
13.567421499249576,-0.3396480083465576,-0.9408639669418336,-0.3725879788398742,55.58000183105469,-49.03499984741211,-0.0175000000745058
13.58758111514742,-0.3886919915676117,-0.938423991203308,-0.3623400032520294,55.94750213623047,-62.98250198364258,9.607500076293944
13.607740731045265,-0.3325719833374023,-0.9128040075302124,-0.3172000050544739,60.70750045776367,-77.85749816894531,12.039999961853027
13.62790034694311,-0.2569319903850555,-0.8947479724884033,-0.3362320065498352,56.89250183105469,-82.96749877929688,10.692500114440918
13.648059962840954,-0.1778759956359863,-0.912559986114502,-0.2898719906806946,36.032501220703125,-89.18000030517578,4.007500171661377
13.668219578738798,-0.1527439951896667,-0.9372040033340454,-0.234727993607521,31.53499984741211,-100.50250244140624,-4.462500095367432
13.688379194636642,-0.1890999972820282,-0.9115839600563048,-0.2249680012464523,38.63999938964844,-98.94499969482422,-25.462499618530277
13.708538810534487,-0.1915400028228759,-0.9928359985351562,-0.2208199948072433,44.48500061035156,-99.5749969482422,-31.692501068115234
13.72869842643233,-0.3010959923267364,-0.995519995689392,-0.0797879993915557,55.58000183105469,-106.95999908447266,-18.637500762939453
13.748858042330175,-0.3884479999542236,-1.0965359210968018,0.0119559997692704,58.92250061035156,-116.65499877929688,-39.130001068115234
13.76901765822802,-0.3201279938220978,-1.335655927658081,0.118827998638153,58.32749938964844,-127.0500030517578,-56.36750030517578
13.789177274125864,-0.3181760013103485,-1.3578599691390991,0.0444080010056495,71.38249969482422,-121.3625030517578,-14.9975004196167
13.809336890023708,-0.2788919806480407,-1.333948016166687,0.0617319978773593,72.46749877929688,-118.26499938964844,-8.154999732971191
13.829496505921552,-0.119559995830059,-1.503283977508545,0.0834480002522468,54.26750183105469,-98.99749755859376,0.2275000065565109
13.849656121819397,-0.2998760044574737,-1.4625359773635864,0.1063839942216873,23.362499237060547,-84.38500213623047,0.8924999833106995
13.869815737717241,-0.4811680018901825,-1.377135992050171,0.1300520002841949,-12.512499809265137,-71.33000183105469,-15.78499984741211
13.889975353615085,-0.5267959833145142,-1.3122320175170898,-0.0663679987192154,-26.530000686645508,-39.602500915527344,-27.28249931335449
13.91013496951293,-0.4535959959030151,-1.2185360193252563,-0.2030079960823059,-24.21999931335449,-25.44499969482422,-24.377500534057617
13.930294585410774,-0.3442839980125427,-1.300519943237305,-0.2235039919614792,-21.559999465942383,-21.01749992370605,-21.01749992370605
13.950454201308618,-0.2579079866409302,-1.2300039529800415,-0.2725479900836944,-3.307500123977661,-7.980000019073486,-21.94499969482422
13.970613817206463,-0.1400559991598129,-1.075063943862915,-0.1861719936132431,11.760000228881836,-13.59749984741211,-24.44750022888184
13.990773433104307,-0.1039439961314201,-1.0816519260406494,-0.2142319977283477,4.182499885559082,-6.072500228881836,-23.59000015258789
14.010933049002151,-0.0617319978773593,-0.9977160096168518,-0.140299990773201,6.054999828338623,0.962499976158142,-22.68000030517578
14.031092664899996,-0.0158599987626075,-0.8759599924087524,-0.1271239966154098,8.662500381469727,12.494999885559082,-24.622499465942383
14.05125228079784,0.0527039989829063,-0.7812879681587219,-0.0824719965457916,4.829999923706055,17.815000534057617,-24.65749931335449
14.071411896695684,0.0431879982352256,-0.7995879650115967,-0.0222040005028247,-7.052500247955322,19.0049991607666,-17.989999771118164
14.091571512593529,0.0885719954967498,-0.8608319759368896,-0.057583998888731,2.5199999809265137,24.815000534057617,-17.832500457763672
14.111731128491373,0.0631959959864616,-0.742247998714447,-0.020983999595046,34.45750045776367,38.84999847412109,-36.907501220703125
14.131890744389217,-0.0634399950504303,-0.8435080051422119,-0.0729559957981109,-7.420000076293945,48.14250183105469,-33.564998626708984
14.152050360287062,-0.1290760040283203,-1.089460015296936,-0.0026839999482035,-52.90250015258789,24.045000076293945,-4.96999979019165
14.172209976184906,-0.1512800008058548,-1.2531839609146118,0.013663999736309,-54.61750030517578,10.6225004196167,5.40749979019165
14.19236959208275,-0.0949160009622573,-1.1162999868392944,0.0936959981918335,-28.087499618530277,-2.345000028610229,-7.087500095367432
14.212529207980594,0.0212280005216598,-1.1106879711151123,0.0802759975194931,-27.299999237060547,-17.587499618530273,-10.6225004196167
14.232688823878439,0.1207799986004829,-1.1724200248718262,0.1139479950070381,-32.060001373291016,-35.84000015258789,-5.96750020980835
14.252848439776283,0.0656360015273094,-1.034559965133667,-0.0424560010433197,-16.082500457763672,-55.807498931884766,5.512499809265137
14.273008055674127,0.1781200021505355,-0.9674599766731262,-0.0595359988510608,-4.934999942779541,-60.21749877929688,10.149999618530272
14.293167671571972,0.3040239810943603,-1.070915937423706,0.0570959970355033,-9.537500381469728,-50.81999969482422,20.5625
14.313327287469816,0.1617719978094101,-1.0940959453582764,-0.0039039999246597,-8.329999923706055,-20.982500076293945,24.167499542236328
14.33348690336766,0.0602679997682571,-1.0001559257507324,-0.028303999453783,1.75,-20.684999465942383,19.63500022888184
14.353646519265505,-0.0446520000696182,-0.9520879983901978,-0.0590479969978332,-3.220000028610229,-16.729999542236328,9.904999732971191
14.373806135163349,-0.1212679967284202,-0.9267119765281676,0.0212280005216598,-6.440000057220459,-9.572500228881836,5.757500171661377
14.393965751061193,-0.1937360018491745,-0.8886479735374451,0.0056119998916983,-3.9375,0.612500011920929,7.647500038146973
14.414125366959038,-0.175924003124237,-0.8288679718971252,0.003171999938786,2.6424999237060547,0.4724999964237213,14.087499618530272
14.434284982856882,-0.1490840017795562,-0.750544011592865,0.0148839997127652,11.182499885559082,1.995000004768372,13.49250030517578
14.454444598754726,-0.0822279974818229,-0.5602239966392517,0.0897919982671737,14.9975004196167,0.4200000166893005,7.752500057220459
14.47460421465257,-0.1090679988265037,-0.5919439792633057,0.0683199986815452,-2.3975000381469727,12.337499618530272,6.335000038146973
14.494763830550415,0.0258639995008707,-0.7058919668197632,0.0019519999623298,-10.920000076293944,24.20249938964844,14.140000343322754
14.51492344644826,0.0509959980845451,-0.733951985836029,-0.0251320004463195,-3.447499990463257,40.040000915527344,13.877500534057615
14.535083062346104,-0.0034159999340772,-0.6519680023193359,-0.0683199986815452,12.057499885559082,52.86750030517578,12.477499961853027
14.555242678243948,-0.1312720030546188,-0.651479959487915,-0.1080919951200485,8.470000267028809,58.782501220703125,5.949999809265137
14.575402294141792,-0.1076039969921112,-0.6341559886932373,-0.0819839984178543,8.662500381469727,57.119998931884766,-3.745000123977661
14.595561910039637,-0.1337119936943054,-0.5560759902000427,-0.1036999970674514,14.682499885559082,63.665000915527344,-12.704999923706056
14.61572152593748,-0.260591983795166,-0.6575799584388733,-0.138835996389389,-27.8075008392334,59.9900016784668,-4.987500190734863
14.635881141835325,-0.3074399828910827,-0.9040200114250184,-0.0585599988698959,-38.5,47.477500915527344,-4.340000152587891
14.65604075773317,-0.3472119867801666,-0.9679479598999025,-0.0846679955720901,-26.31999969482422,34.19499969482422,-1.3300000429153442
14.676200373631014,-0.3042680025100708,-1.0545679330825806,-0.1332239955663681,-22.434999465942383,19.0575008392334,4.934999942779541
14.696359989528858,-0.1810479909181594,-1.0777479410171509,-0.0175679996609687,-14.140000343322754,3.692500114440918,3.552500009536743
14.716519605426702,-0.1334680020809173,-1.0745760202407837,0.0451399981975555,-9.327500343322754,-1.4700000286102295,0.8050000071525574
14.736679221324547,-0.1066280007362365,-1.0748199224472046,0.0195199996232986,-3.972500085830689,-3.674999952316284,-3.1675000190734863
14.756838837222391,-0.0805199965834617,-1.015771985054016,0.0012199999764561,5.057499885559082,-5.09250020980835,-9.029999732971191
14.776998453120235,-0.0832040011882782,-0.9274439811706544,0.0087839998304843,12.074999809265137,-6.230000019073486,-12.355000495910645
14.79715806901808,-0.0946719944477081,-0.8557080030441284,-0.0178119987249374,11.357500076293944,-7.332499980926514,-10.675000190734863
14.817317684915924,-0.1024799942970275,-0.9789279699325562,0.0046359999105334,-1.6974999904632568,-9.467499732971191,-12.28499984741211
14.837477300813768,-0.1249279975891113,-0.9374479651451112,-0.0126879997551441,3.307500123977661,-13.737500190734863,-17.0625
14.857636916711613,-0.1690919995307922,-0.8981639742851257,-0.0639280006289482,3.0975000858306885,-13.475000381469728,-17.780000686645508
14.877796532609457,-0.1727519929409027,-0.9171959757804872,-0.0780799984931945,-3.220000028610229,-16.677499771118164,-18.059999465942383
14.897956148507301,-0.1851959973573684,-0.9616039991378784,-0.104432001709938,-7.262499809265137,-16.39750099182129,-17.639999389648438
14.918115764405146,-0.1800719946622848,-0.9425719976425172,-0.1534759998321533,-4.567500114440918,-13.6850004196167,-18.5674991607666
14.93827538030299,-0.1744599938392639,-0.9303719997406006,-0.1690919995307922,-5.547500133514404,-12.5649995803833,-20.8075008392334
14.958434996200834,-0.1551840007305145,-0.9313479661941528,-0.1676279902458191,-8.557499885559082,-10.56999969482422,-21.350000381469727
14.978594612098679,-0.1966639906167984,-0.9433040022850036,-0.1668960005044937,-10.0625,-8.994999885559082,-21.280000686645508
14.998754227996523,-0.3342799842357635,-0.9574559926986694,-0.224723994731903,-12.442500114440918,-6.860000133514404,-18.96999931335449
15.018913843894367,-0.0912560001015663,-0.8030039668083191,-0.1600639969110489,-0.332500010728836,-16.327499389648438,-20.77250099182129
15.039073459792212,-0.0651479959487915,-0.8020280003547668,-0.1993480026721954,-9.625,-1.8025000095367432,-22.732500076293945
15.059233075690056,-0.1080919951200485,-0.868395984172821,-0.1925159990787506,-21.73500061035156,6.789999961853027,-24.587499618530277
15.0793926915879,-0.1405439972877502,-0.9740479588508606,-0.1827559918165207,-25.637500762939453,9.3100004196167,-27.177499771118164
15.099552307485745,-0.1285879909992218,-1.0592039823532104,-0.1810479909181594,-16.362499237060547,11.8125,-27.020000457763672
15.119711923383589,-0.0993079990148544,-1.1311839818954468,-0.2293599992990493,-6.702499866485596,17.587499618530273,-23.520000457763672
15.139871539281433,-0.1363959908485412,-1.2456200122833252,-0.2527839839458465,-4.007500171661377,23.030000686645508,-13.824999809265137
15.160031155179277,-0.090279996395111,-1.3617639541625977,-0.2793799936771393,2.817500114440918,21.612499237060547,0.6825000047683716
15.180190771077122,0.1993480026721954,-1.1858400106430054,-0.0944279953837394,33.98500061035156,4.602499961853027,17.815000534057617
15.200350386974966,0.3096359968185425,-0.8447279930114746,-0.0207399986684322,57.067501068115234,6.807499885559082,21.612499237060547
15.22051000287281,0.1776320040225982,-0.7300480008125305,0.1515239924192428,43.57500076293945,20.247499465942383,16.99250030517578
15.240669618770655,0.3101239800453186,-1.0021079778671265,0.0919879972934722,0.1574999988079071,11.550000190734863,11.77750015258789
15.260829234668499,0.1015039980411529,-1.1875479221343994,-0.1954440027475357,-21.122499465942383,47.1974983215332,8.994999885559082
15.280988850566343,0.0914999991655349,-0.8935279846191406,-0.0531919971108436,5.389999866485596,53.584999084472656,-11.024999618530272
15.301148466464188,-0.2025199979543686,-0.9677039980888368,-0.0595359988510608,-14.017499923706056,2.870000123977661,-7.420000076293945
15.321308082362032,-0.0102479998022317,-0.9960079789161682,-0.124439999461174,-19.46000099182129,-24.114999771118164,-31.604999542236328
15.341467698259876,0.1505479961633682,-1.3685959577560425,-0.1034559980034828,-54.75749969482422,-10.114999771118164,-13.982500076293944
15.36162731415772,0.2913359999656677,-1.5623319149017334,0.0312319993972778,-28.559999465942383,0.2100000083446502,10.255000114440918
15.381786930055565,0.4909279942512512,-1.318331956863403,-0.0461159981787204,20.982500076293945,-3.674999952316284,8.487500190734863
15.40194654595341,0.4872680008411407,-1.0111359357833862,-0.0407480001449584,46.91749954223633,-4.112500190734863,-15.38249969482422
15.422106161851254,0.2740119993686676,-0.8632720112800598,-0.0683199986815452,51.17000198364258,0.9100000262260436,-37.2400016784668
15.442265777749098,0.0014639999717473,-0.8366760015487671,-0.0692960023880004,19.337499618530277,11.88249969482422,-52.5
15.462425393646942,-0.0797879993915557,-0.7529839873313904,0.0163480006158351,17.325000762939453,-0.4025000035762787,-30.362499237060547
15.482585009544787,-0.0502640008926391,-0.7734799981117249,-0.020983999595046,0.0350000001490116,-6.5625,-10.342499732971191
15.50274462544263,0.1041879951953888,-0.8669319748878479,-0.0012199999764561,-6.965000152587891,-17.237499237060547,1.8899999856948853
15.522904241340475,0.1912959963083267,-0.9062159657478333,-0.0295239984989166,-2.0999999046325684,-17.46500015258789,9.15250015258789
15.54306385723832,0.1908079981803894,-0.9018239974975586,-0.0409919992089271,0.4025000035762787,-14.84000015258789,11.77750015258789
15.563223473136164,0.1686040014028549,-0.9555040001869202,-0.090279996395111,-4.199999809265137,-10.86750030517578,11.585000038146973
15.583383089034008,0.1620160043239593,-0.9884439706802368,-0.1158999949693679,-4.53249979019165,-8.75,7.28000020980835
15.603542704931852,0.2317999899387359,-1.0238239765167236,-0.0946719944477081,-3.5,3.972500085830689,-6.072500228881836
15.623702320829697,0.2754760086536407,-1.047003984451294,-0.0897919982671737,4.514999866485596,10.552499771118164,-9.625
15.643861936727541,0.3225679993629455,-1.044808030128479,-0.0761279985308647,13.720000267028809,14.717499732971191,-14.297499656677246
15.664021552625385,0.4875119924545288,-1.0648159980773926,-0.0407480001449584,13.457500457763672,49.34999847412109,-11.672499656677246
15.68418116852323,0.3357439935207367,-1.0862879753112793,-0.056607998907566,1.2424999475479126,86.9574966430664,29.854999542236328
15.704340784421074,0.1234639957547187,-0.9635559916496276,-0.1354199945926666,16.362499237060547,92.8375015258789,38.53499984741211
15.724500400318918,0.1200480014085769,-0.9472079873085022,-0.0634399950504303,22.627500534057617,67.14749908447266,25.165000915527344
15.744660016216763,0.0868639945983886,-0.9945439696311952,-0.0934519991278648,30.362499237060547,47.005001068115234,11.182499885559082
15.764819632114607,0.2186239957809448,-0.913047969341278,0.0356239974498748,37.93999862670898,16.292499542236328,-2.0299999713897705
15.784979248012451,0.1625040024518966,-0.9806360006332396,-0.0753960013389587,8.487500190734863,61.35499954223633,12.845000267028809
15.805138863910296,0.0810080021619796,-1.006011962890625,-0.1119959950447082,7.507500171661377,65.80000305175781,25.5674991607666
15.82529847980814,0.0690519958734512,-1.0472480058670044,-0.2232600003480911,-1.1200000047683716,59.84999847412109,25.95249938964844
15.845458095705984,0.0114679997786879,-1.0897040367126465,-0.1895879954099655,-6.545000076293945,59.86750030517578,23.625
15.865617711603829,-0.046604000031948,-1.146799921989441,-0.0485559999942779,-5.25,52.37749862670898,17.86750030517578
15.885777327501673,-0.2332639992237091,-1.1931599378585815,-0.0631959959864616,-10.797499656677246,51.20500183105469,12.984999656677246
15.905936943399517,-0.2847479879856109,-1.1916959285736084,-0.0841799974441528,-6.755000114440918,45.43000030517578,5.599999904632568
15.926096559297362,-0.1434720009565353,-0.9589200019836426,-0.0156159996986389,20.790000915527344,23.11750030517578,-3.1675000190734863
15.946256175195206,-0.2327760010957718,-0.8391159772872925,-0.0126879997551441,20.737499237060547,24.727500915527344,5.494999885559082
15.96641579109305,-0.2840159833431244,-0.7746999859809875,0.1071159988641738,18.39249992370605,1.7675000429153442,17.674999237060547
15.986575406990895,-0.226187989115715,-0.8056879639625549,0.0751519948244094,7.175000190734863,-19.18000030517578,20.33500099182129
16.00673502288874,-0.1629920005798339,-0.8583920001983643,0.1300520002841949,2.2925000190734863,-37.345001220703125,14.279999732971191
16.026894638786587,-0.0732000023126602,-0.8847439885139465,0.2305800020694732,3.902499914169312,-47.51250076293945,2.782500028610229
16.047054254684433,0.056607998907566,-0.9057279825210572,0.1995919942855835,7.122499942779541,-33.407501220703125,-9.65999984741211
16.06721387058228,0.1407880038022995,-0.9984479546546936,0.0234239995479583,-12.267499923706056,-19.424999237060547,-5.320000171661377
16.087373486480125,0.2613239884376526,-1.203163981437683,-0.0588039979338645,-39.147499084472656,-11.567500114440918,6.947500228881836
16.10753310237797,0.2744999825954437,-1.3920199871063232,0.0839359983801841,-41.86000061035156,-0.9975000023841858,15.75
16.127692718275817,0.1466439962387085,-1.3534679412841797,0.1556719988584518,-16.3799991607666,19.28499984741211,14.489999771118164
16.147852334173663,-0.0356239974498748,-1.19706392288208,0.0639280006289482,6.247499942779541,34.5099983215332,15.470000267028809
16.16801195007151,-0.1515239924192428,-1.0662800073623655,0.0527039989829063,20.002500534057617,35.4900016784668,22.102500915527344
16.188171565969355,-0.2232600003480911,-0.9149999618530272,0.0446520000696182,28.4375,35.97999954223633,25.51499938964844
16.2083311818672,-0.1786080002784729,-0.8122760057449341,0.0878399983048439,29.5575008392334,25.200000762939453,22.76749992370605
16.228490797765048,-0.1078479960560798,-0.7664039731025696,0.1027240008115768,23.467500686645508,19.25,16.887500762939453
16.248650413662894,-0.0387960001826286,-0.773967981338501,0.1315159946680069,16.537500381469727,15.225000381469728,10.640000343322754
16.26881002956074,-0.0222040005028247,-0.7927559614181519,0.1827559918165207,9.467499732971191,16.15250015258789,5.775000095367432
16.288969645458586,-0.0485559999942779,-0.8457039594650269,0.2091079950332641,0.1574999988079071,18.357500076293945,2.2225000858306885
16.309129261356432,-0.0609999969601631,-0.9123159646987916,0.1939799934625625,-10.307499885559082,18.602500915527344,0.0874999985098838
16.329288877254278,-0.0512399971485137,-0.9989359974861144,0.1119959950447082,-19.72249984741211,18.270000457763672,-0.5074999928474426
16.349448493152124,-0.0278159994632005,-1.0228480100631714,0.0971119999885559,-18.74250030517578,17.13249969482422,-0.7175000309944153
16.36960810904997,0.1049199998378753,-1.043344020843506,0.0570959970355033,-17.202499389648438,21.087499618530277,-1.4524999856948853
16.389767724947816,-0.0656360015273094,-0.7883639931678772,0.0544119998812675,3.902499914169312,61.7400016784668,18.462499618530277
16.409927340845663,-0.1571359932422638,-1.2661160230636597,0.0763719975948333,-41.5099983215332,28.94499969482422,0.0700000002980232
16.43008695674351,0.0014639999717473,-1.0638400316238403,0.1105320006608963,-5.302500247955322,-4.550000190734863,-14.175000190734863
16.450246572641355,-0.0802759975194931,-0.9630680084228516,0.1261480003595352,-0.4375,26.232500076293945,-0.962499976158142
16.4704061885392,-0.0583159998059272,-1.019919991493225,0.0963799953460693,-8.890000343322754,20.77250099182129,4.550000190734863
16.490565804437047,-0.0427000001072883,-1.0187000036239624,0.134443998336792,-1.662500023841858,20.33500099182129,5.057499885559082
16.510725420334893,-0.046604000031948,-0.9923479557037354,0.1285879909992218,2.484999895095825,21.57749938964844,1.9774999618530276
16.53088503623274,-0.0653920024633407,-0.9882000088691713,0.1156559959053993,5.320000171661377,22.9424991607666,-0.2800000011920929
16.551044652130585,-0.0817399993538856,-0.9591639637947084,0.1410319954156875,10.272500038146973,24.09749984741211,-2.327500104904175
16.57120426802843,-0.0763719975948333,-0.9481839537620544,0.1612839996814727,10.342499732971191,22.924999237060547,-3.9375
16.591363883926277,-0.08661999553442,-0.9486719965934752,0.1510359942913055,10.289999961853027,22.802499771118164,-5.372499942779541
16.611523499824123,-0.0741759985685348,-0.9381799697875975,0.1444479972124099,11.899999618530272,22.26000022888184,-8.1899995803833
16.63168311572197,-0.0458719991147518,-0.94159597158432,0.1415199935436248,8.260000228881836,23.799999237060547,-10.149999618530272
16.651842731619816,-0.2134999930858612,-1.0638400316238403,0.0024399999529123,-12.8100004196167,35.349998474121094,-4.042500019073486
16.67200234751766,-0.1105320006608963,-1.4334999322891235,-0.5660799741744995,-64.47000122070312,48.807498931884766,2.852499961853028
16.692161963415508,-0.1571359932422638,-1.338096022605896,0.0470919981598854,6.772500038146973,19.65250015258789,16.415000915527344
16.712321579313354,-0.1178519949316978,-1.1770559549331665,-0.1854400038719177,11.077500343322754,6.702499866485596,29.26000022888184
16.7324811952112,-0.2552239894866943,-0.944767951965332,-0.1088239997625351,30.11750030517578,16.55500030517578,28.50749969482422
16.752640811109046,-0.2422920018434524,-0.839847981929779,-0.0651479959487915,30.502500534057617,4.235000133514404,14.752500534057615
16.772800427006892,-0.2310680001974105,-0.8496080040931702,-0.0597799979150295,17.219999313354492,1.3825000524520874,1.9075000286102293
16.79296004290474,-0.2298479974269867,-0.9088999629020692,-0.0932080000638961,10.43000030517578,-2.817500114440918,-8.925000190734863
16.813119658802584,-0.2044719904661178,-0.9884439706802368,-0.0839359983801841,7.4375,-7.525000095367432,-13.649999618530272
16.83327927470043,-0.1903200000524521,-1.0872639417648315,-0.0734440013766288,9.449999809265137,-12.739999771118164,-16.1875
16.853438890598277,-0.1249279975891113,-1.0843359231948853,-0.05197199806571,22.137500762939453,-20.3174991607666,-17.184999465942383
16.873598506496123,-0.0597799979150295,-0.941107988357544,-0.0895479992032051,32.060001373291016,-23.362499237060547,-16.467500686645508
16.89375812239397,0.0117119997739791,-0.8469240069389343,-0.1158999949693679,28.80500030517578,-24.88500022888184,-14.227499961853027
16.913917738291815,0.0744199976325035,-0.8142279982566833,-0.1483519971370697,16.69499969482422,-21.979999542236328,-10.6225004196167
16.93407735418966,0.1351760029792785,-0.8371639847755432,-0.115167997777462,3.7799999713897705,-18.58500099182129,-6.510000228881836
16.954236970087507,0.157379999756813,-0.9128040075302124,-0.0897919982671737,-10.3774995803833,-14.332500457763672,-3.5350000858306885
16.974396585985353,0.1554279923439026,-1.0250439643859863,-0.1578679978847503,-21.174999237060547,-12.109999656677246,-7.139999866485596
16.9945562018832,0.1307840049266815,-1.0823839902877808,-0.1932480037212371,-20.982500076293945,-12.407500267028809,-11.567500114440918
17.014715817781045,0.0400159992277622,-1.1836439371109009,-0.1495719999074936,-20.8075008392334,-10.395000457763672,-14.682499885559082
17.03487543367889,-0.0761279985308647,-1.2653839588165283,-0.056607998907566,-14.105000495910645,-11.147500038146973,-18.375
17.055035049576738,-0.1073599979281425,-1.145336031913757,0.0102479998022317,-0.3149999976158142,-18.23500061035156,-21.542499542236328
17.075194665474584,-0.037331998348236,-1.1345999240875244,0.0229359995573759,-2.8350000381469727,-24.43000030517578,-24.395000457763672
17.09535428137243,0.0441639982163906,-1.067255973815918,0.0326960012316703,1.277500033378601,-28.752500534057617,-29.417499542236328
17.115513897270276,0.1029679998755455,-0.925491988658905,0.0478239990770816,5.022500038146973,-30.100000381469727,-32.935001373291016
17.135673513168122,0.1464000046253204,-0.8283799886703491,0.0385520011186599,-1.6974999904632568,-27.317501068115234,-30.677499771118164
17.155833129065968,0.1578679978847503,-0.7998319864273071,0.0119559997692704,-12.862500190734863,-22.27750015258789,-26.02250099182129
17.175992744963814,0.1525000035762787,-0.835211992263794,0.0165919996798038,-22.225000381469727,-18.479999542236328,-21.94499969482422
17.19615236086166,0.1459119915962219,-0.8557080030441284,0.009515999816358,-25.95249938964844,-16.4325008392334,-17.815000534057617
17.216311976759506,0.1332239955663681,-0.8740079998970032,0.0153719997033476,-27.94750022888184,-18.059999465942383,-12.547499656677246
17.236471592657352,0.0988200008869171,-0.9364719986915588,-0.009515999816358,-35.279998779296875,-18.024999618530277,-6.877500057220459
17.2566312085552,0.0761279985308647,-1.1038559675216677,-0.0480679981410503,-32.70750045776367,-22.26000022888184,-2.0299999713897705
17.276790824453045,0.1105320006608963,-1.1058080196380615,-0.0292799994349479,-19.950000762939453,-21.770000457763672,-2.414999961853028
17.29695044035089,0.1525000035762787,-1.0862879753112793,0.002195999957621,-10.762499809265137,-19.25,-4.497499942779541
17.317110056248737,0.1725080013275146,-1.0655479431152344,0.0200079996138811,-5.704999923706055,-16.012500762939453,-7.630000114440918
17.337269672146583,0.1505479961633682,-1.0411479473114014,0.0390399992465972,-2.572499990463257,-11.164999961853027,-10.90250015258789
17.35742928804443,0.1085800006985664,-1.0140639543533323,0.0732000023126602,-0.7699999809265137,-7.472499847412109,-12.670000076293944
17.377588903942275,0.1234639957547187,-0.9755119681358336,0.0805199965834617,2.1700000762939453,-8.4350004196167,-12.5649995803833
17.39774851984012,0.1612839996814727,-0.9362279772758484,0.1232199966907501,6.072500228881836,-11.095000267028809,-11.30500030517578
17.417908135737967,0.2049599885940551,-0.9259799718856812,0.1012599989771843,6.28249979019165,-12.039999961853027,-8.977499961853027
17.438067751635813,0.2503440082073211,-0.9423279762268066,0.0756400004029274,8.34749984741211,-10.447500228881836,-5.127500057220459
17.45822736753366,0.2564440071582794,-0.7929999828338623,0.0885719954967498,22.225000381469727,-3.307500123977661,0.962499976158142
17.478386983431506,0.1715319901704788,-0.896943986415863,0.1442039906978607,8.8725004196167,14.752500534057615,7.612500190734863
17.49854659932935,0.2759639918804168,-0.9947879910469056,0.0256199985742568,0.5249999761581421,-4.96999979019165,8.75
17.518706215227198,0.3113439977169037,-1.1067839860916138,-0.5097159743309021,-21.857500076293945,-4.760000228881836,4.164999961853027
17.538865831125044,-0.0217159986495971,-1.45960795879364,-0.676367998123169,-49.997501373291016,56.26250076293945,-2.6424999237060547
17.55902544702289,-0.1332239955663681,-1.3829920291900637,0.1690919995307922,12.31999969482422,8.855000495910645,-22.88999938964844
17.579185062920736,-0.175924003124237,-1.1358200311660769,-0.1930039972066879,20.52750015258789,9.135000228881836,-37.04750061035156
17.599344678818582,-0.3357439935207367,-0.868395984172821,-0.3901560008525848,36.29500198364258,9.957500457763672,-29.52250099182129
17.619504294716428,-0.4021120071411133,-0.6451359987258911,-0.2542479932308197,40.810001373291016,-10.885000228881836,-21.962499618530277
17.639663910614274,-0.2747440040111542,-0.7556679844856262,-0.0597799979150295,9.204999923706056,-22.190000534057617,-10.412500381469728
17.65982352651212,-0.0434319972991943,-1.1143479347229004,-0.2249680012464523,-23.799999237060547,-26.72249984741211,-3.289999961853028
17.679983142409966,0.0978439971804618,-1.1914520263671875,-0.3430639803409576,-11.88249969482422,-34.89500045776367,1.9075000286102293
17.700142758307813,0.2715719938278198,-1.085312008857727,-0.1742160022258758,8.329999923706055,-56.71749877929688,7.630000114440918
17.72030237420566,0.3150039911270141,-1.042855978012085,-0.0697840005159378,14.297499656677246,-50.907501220703125,17.90250015258789
17.740461990103505,0.2269199937582016,-0.981611967086792,-0.0954039990901947,15.119999885559082,-21.280000686645508,23.99250030517578
17.76062160600135,0.1688479930162429,-0.9059720039367676,-0.0812520012259483,17.045000076293945,-14.105000495910645,24.71000099182129
17.780781221899197,0.0478239990770816,-0.8427760004997253,-0.1256600022315979,11.042500495910645,-1.784999966621399,25.200000762939453
17.800940837797043,-0.0341599993407726,-0.8361879587173462,-0.1176079958677291,4.252500057220459,3.6575000286102295,25.82999992370605
17.82110045369489,-0.020983999595046,-0.8535119891166687,-0.076615996658802,2.870000123977661,3.202500104904175,25.462499618530277
17.841260069592735,-0.0168359987437725,-0.9808799624443054,-0.1049199998378753,-9.25749969482422,7.909999847412109,23.100000381469727
17.86141968549058,-0.0356239974498748,-1.1873040199279783,-0.0839359983801841,-13.300000190734863,11.6899995803833,12.670000076293944
17.881579301388427,-0.0639280006289482,-1.0967799425125122,-0.0668559968471527,-1.0325000286102295,6.440000057220459,11.4975004196167
17.901738917286274,-0.0595359988510608,-0.9977160096168518,-0.0790559947490692,5.144999980926514,0.7350000143051147,14.595000267028809
17.92189853318412,-0.0280600003898143,-0.9657520055770874,-0.075883999466896,4.21750020980835,-2.117500066757202,19.4424991607666
17.942058149081966,0.0065879998728632,-0.9974719882011414,-0.0602679997682571,0.9800000190734864,-0.7524999976158142,21.1924991607666
17.962217764979812,0.0261080004274845,-1.0540800094604492,-0.0344039984047412,2.5199999809265137,0.4724999964237213,18.864999771118164
17.982377380877658,0.0363559983670711,-1.0279719829559326,-0.0514839999377727,11.182499885559082,3.202500104904175,15.364999771118164
18.002536996775504,0.0056119998916983,-1.0062559843063354,-0.0553879998624324,14.192500114440918,6.947500228881836,15.487500190734863
18.02269661267335,-0.0080519998446106,-0.9320799708366394,-0.041967999190092,17.045000076293945,6.772500038146973,15.557499885559082
18.042856228571196,0.0034159999340772,-0.9289079904556274,-0.0485559999942779,12.512499809265137,8.8725004196167,15.119999885559082
18.063015844469042,-0.023667998611927,-0.9364719986915588,-0.0461159981787204,7.349999904632568,14.489999771118164,14.087499618530272
18.08317546036689,0.0222040005028247,-0.9306159615516664,-0.0178119987249374,4.952499866485596,15.592499732971191,9.292500495910645
18.103335076264734,0.0353799983859062,-0.9657520055770874,-0.0192760005593299,0.2975000143051147,21.4375,4.585000038146973
18.12349469216258,0.0351359993219375,-0.9738039970397948,-0.0131759997457265,-0.9275000095367432,24.674999237060547,1.2074999809265137
