Time (seconds),acc_x,acc_y,acc_z,gyro_x,gyro_y,gyro_z
0.02023494589184344,-0.0807639956474304,-0.993079960346222,-0.076615996658802,0.0350000001490116,0.2100000083446502,0.0525000020861625
0.04046989178368688,-0.0812520012259483,-0.994055986404419,-0.0780799984931945,0.0175000000745058,0.1924999952316284,0.0175000000745058
0.060704837675530324,-0.0807639956474304,-0.9933239817619324,-0.076615996658802,0.0350000001490116,0.2100000083446502,0.0175000000745058
0.08093978356737376,-0.0812520012259483,-0.993079960346222,-0.0763719975948333,0.1225000023841857,0.1749999970197677,-0.0525000020861625
0.1011747294592172,-0.0817399993538856,-0.9933239817619324,-0.076615996658802,0.1225000023841857,0.1924999952316284,-0.0350000001490116
0.12140967535106063,-0.0814960002899169,-0.9928359985351562,-0.076615996658802,0.1400000005960464,0.1574999988079071,-0.0525000020861625
0.14164462124290408,-0.0802759975194931,-0.9928359985351562,-0.0768599957227706,0.1574999988079071,0.1400000005960464,-0.0700000002980232
0.16187956713474752,-0.0800319984555244,-0.9925919771194458,-0.0763719975948333,0.1749999970197677,0.0874999985098838,-0.1050000041723251
0.18211451302659096,-0.0800319984555244,-0.9938119649887084,-0.0761279985308647,0.1400000005960464,0.1050000041723251,-0.0350000001490116
0.2023494589184344,-0.0817399993538856,-0.993079960346222,-0.0763719975948333,0.0700000002980232,0.2100000083446502,-0.0700000002980232
0.22258440481027783,-0.0810080021619796,-0.9925919771194458,-0.075883999466896,0.0350000001490116,0.262499988079071,-0.0874999985098838
0.24281935070212127,-0.0800319984555244,-0.993079960346222,-0.0763719975948333,0.0700000002980232,0.2800000011920929,-0.0874999985098838
0.26305429659396473,-0.0807639956474304,-0.9928359985351562,-0.0761279985308647,0.1400000005960464,0.3149999976158142,-0.0700000002980232
0.28328924248580817,-0.0817399993538856,-0.9935680031776428,-0.0763719975948333,0.1749999970197677,0.3499999940395355,-0.1050000041723251
0.3035241883776516,-0.0805199965834617,-0.994055986404419,-0.0771040022373199,0.1924999952316284,0.332500010728836,-0.1400000005960464
0.32375913426949504,-0.0807639956474304,-0.990884006023407,-0.0744199976325035,0.3149999976158142,0.332500010728836,-0.1050000041723251
0.3439940801613385,-0.0785679966211319,-0.990884006023407,-0.0736880004405975,0.1749999970197677,0.2975000143051147,-0.0700000002980232
0.3642290260531819,-0.0810080021619796,-0.9947879910469056,-0.0771040022373199,-0.0175000000745058,0.3675000071525574,-0.0525000020861625
0.38446397194502535,-0.0839359983801841,-0.9974719882011414,-0.0790559947490692,0.0700000002980232,0.332500010728836,-0.0700000002980232
0.4046989178368688,-0.0832040011882782,-0.9935680031776428,-0.0761279985308647,0.4375,0.1574999988079071,-0.2450000047683715
0.4249338637287122,-0.0790559947490692,-0.9913719892501832,-0.0751519948244094,0.4900000095367431,0.1574999988079071,-0.3675000071525574
0.44516880962055566,-0.0773480013012886,-0.990884006023407,-0.0736880004405975,0.332500010728836,0.3499999940395355,-0.332500010728836
0.4654037555123991,-0.0788119956851005,-0.9916160106658936,-0.0729559957981109,0.1749999970197677,0.4025000035762787,-0.2275000065565109
0.48563870140424253,-0.0810080021619796,-0.9918599724769592,-0.0734440013766288,0.1574999988079071,0.332500010728836,-0.2100000083446502
0.505873647296086,-0.0827159956097602,-0.9950319528579712,-0.0751519948244094,0.1574999988079071,0.2100000083446502,-0.1400000005960464
0.5261085931879295,-0.0800319984555244,-0.9957639575004578,-0.076615996658802,0.2975000143051147,0.1574999988079071,-0.2275000065565109
0.546343539079773,-0.0795440003275871,-0.9943000078201294,-0.0768599957227706,0.4200000166893005,0.1225000023841857,-0.2975000143051147
0.5665784849716164,-0.0802759975194931,-0.9943000078201294,-0.0768599957227706,0.4200000166893005,0.1050000041723251,-0.2975000143051147
0.5868134308634599,-0.0810080021619796,-0.9928359985351562,-0.0763719975948333,0.5249999761581421,0.0350000001490116,-0.3675000071525574
0.6070483767553034,-0.0780799984931945,-0.990884006023407,-0.0749079957604408,0.4200000166893005,-0.0350000001490116,-0.3149999976158142
0.6272833226471469,-0.0797879993915557,-0.9925919771194458,-0.0773480013012886,0.2450000047683715,-0.0350000001490116,-0.2100000083446502
0.6475182685389904,-0.0814960002899169,-0.9945439696311952,-0.0778359994292259,0.1749999970197677,-0.0874999985098838,-0.1400000005960464
0.6677532144308339,-0.0814960002899169,-0.9943000078201294,-0.0778359994292259,0.3149999976158142,-0.262499988079071,-0.2100000083446502
0.6879881603226774,-0.0785679966211319,-0.9923479557037354,-0.0780799984931945,0.2800000011920929,-0.1574999988079071,-0.262499988079071
0.7082231062145209,-0.0783239975571632,-0.9938119649887084,-0.0783239975571632,0.2800000011920929,-0.0874999985098838,-0.2800000011920929
0.7284580521063644,-0.0800319984555244,-0.993079960346222,-0.0778359994292259,0.2450000047683715,-0.0175000000745058,-0.3149999976158142
0.7486929979982079,-0.0802759975194931,-0.9925919771194458,-0.0773480013012886,0.262499988079071,-0.0700000002980232,-0.262499988079071
0.7689279438900514,-0.0780799984931945,-0.9921039938926696,-0.076615996658802,0.332500010728836,-0.0874999985098838,-0.2800000011920929
0.7891628897818949,-0.076615996658802,-0.9921039938926696,-0.0763719975948333,0.2800000011920929,-0.0350000001490116,-0.2450000047683715
0.8093978356737384,-0.0771040022373199,-0.9933239817619324,-0.0771040022373199,0.1749999970197677,0.0874999985098838,-0.1749999970197677
0.8296327815655818,-0.0775920003652572,-0.9943000078201294,-0.0773480013012886,0.2450000047683715,0.1400000005960464,-0.1924999952316284
0.8498677274574253,-0.0790559947490692,-0.9938119649887084,-0.0768599957227706,0.262499988079071,0.2800000011920929,-0.262499988079071
0.8701026733492688,-0.0802759975194931,-0.993079960346222,-0.0768599957227706,0.332500010728836,0.2800000011920929,-0.2975000143051147
0.8903376192411123,-0.0785679966211319,-0.9921039938926696,-0.0756400004029274,0.332500010728836,0.3499999940395355,-0.2975000143051147
0.9105725651329558,-0.0775920003652572,-0.9925919771194458,-0.0768599957227706,0.262499988079071,0.4200000166893005,-0.2800000011920929
0.9308075110247993,-0.0768599957227706,-0.9925919771194458,-0.0749079957604408,0.262499988079071,0.4375,-0.2450000047683715
0.9510424569166428,-0.0763719975948333,-0.9921039938926696,-0.0751519948244094,0.2275000065565109,0.5249999761581421,-0.2275000065565109
0.9712774028084863,-0.0771040022373199,-0.994055986404419,-0.076615996658802,0.1225000023841857,0.612500011920929,-0.1924999952316284
0.9915123487003298,-0.0790559947490692,-0.9945439696311952,-0.0756400004029274,0.1574999988079071,0.612500011920929,-0.2275000065565109
1.0117472945921733,-0.0793000012636184,-0.9933239817619324,-0.0753960013389587,0.2450000047683715,0.5774999856948853,-0.262499988079071
1.0319822404840167,-0.0785679966211319,-0.9935680031776428,-0.075883999466896,0.2100000083446502,0.4724999964237213,-0.2450000047683715
1.05221718637586,-0.0775920003652572,-0.9935680031776428,-0.0756400004029274,0.2100000083446502,0.4200000166893005,-0.2275000065565109
1.0724521322677034,-0.0780799984931945,-0.9923479557037354,-0.075883999466896,0.2275000065565109,0.3499999940395355,-0.2275000065565109
1.0926870781595468,-0.0778359994292259,-0.993079960346222,-0.075883999466896,0.1924999952316284,0.3675000071525574,-0.2275000065565109
1.1129220240513902,-0.0775920003652572,-0.9943000078201294,-0.075883999466896,0.1574999988079071,0.3149999976158142,-0.1924999952316284
1.1331569699432336,-0.0783239975571632,-0.9935680031776428,-0.0756400004029274,0.1400000005960464,0.2450000047683715,-0.1400000005960464
1.153391915835077,-0.0778359994292259,-0.9921039938926696,-0.075883999466896,0.1400000005960464,0.2275000065565109,-0.1749999970197677
1.1736268617269203,-0.0783239975571632,-0.9943000078201294,-0.076615996658802,0.1050000041723251,0.2975000143051147,-0.2100000083446502
1.1938618076187637,-0.0783239975571632,-0.994055986404419,-0.0763719975948333,0.2450000047683715,0.262499988079071,-0.2450000047683715
1.214096753510607,-0.0793000012636184,-0.9921039938926696,-0.0771040022373199,0.2975000143051147,0.2100000083446502,-0.2450000047683715
1.2343316994024505,-0.0793000012636184,-0.9938119649887084,-0.0773480013012886,0.2975000143051147,0.2275000065565109,-0.2275000065565109
1.2545666452942938,-0.0790559947490692,-0.9933239817619324,-0.0768599957227706,0.332500010728836,0.1225000023841857,-0.2975000143051147
1.2748015911861372,-0.0797879993915557,-0.9938119649887084,-0.0780799984931945,0.2975000143051147,0.1924999952316284,-0.2975000143051147
1.2950365370779806,-0.0788119956851005,-0.9935680031776428,-0.0793000012636184,0.2975000143051147,0.2450000047683715,-0.262499988079071
1.315271482969824,-0.0788119956851005,-0.9935680031776428,-0.0790559947490692,0.4025000035762787,0.1924999952316284,-0.332500010728836
1.3355064288616674,-0.0793000012636184,-0.9913719892501832,-0.0775920003652572,0.4200000166893005,0.2100000083446502,-0.2975000143051147
1.3557413747535108,-0.0780799984931945,-0.9921039938926696,-0.0780799984931945,0.2975000143051147,0.2800000011920929,-0.2975000143051147
1.3759763206453541,-0.0780799984931945,-0.9928359985351562,-0.0783239975571632,0.262499988079071,0.2100000083446502,-0.262499988079071
1.3962112665371975,-0.0795440003275871,-0.9916160106658936,-0.0780799984931945,0.2800000011920929,0.1924999952316284,-0.2275000065565109
1.416446212429041,-0.0788119956851005,-0.9933239817619324,-0.0785679966211319,0.1574999988079071,0.1400000005960464,-0.1749999970197677
1.4366811583208843,-0.0788119956851005,-0.994055986404419,-0.0780799984931945,0.2100000083446502,0.1574999988079071,-0.1400000005960464
1.4569161042127277,-0.0778359994292259,-0.9935680031776428,-0.0775920003652572,0.2975000143051147,0.1749999970197677,-0.1400000005960464
1.477151050104571,-0.0773480013012886,-0.994055986404419,-0.0775920003652572,0.2275000065565109,0.2450000047683715,-0.1749999970197677
1.4973859959964144,-0.0783239975571632,-0.9947879910469056,-0.0768599957227706,0.1924999952316284,0.2800000011920929,-0.1749999970197677
1.5176209418882578,-0.0783239975571632,-0.9933239817619324,-0.0771040022373199,0.262499988079071,0.2450000047683715,-0.2275000065565109
1.5378558877801012,-0.0778359994292259,-0.9938119649887084,-0.0761279985308647,0.2975000143051147,0.3499999940395355,-0.262499988079071
1.5580908336719446,-0.0778359994292259,-0.9928359985351562,-0.0756400004029274,0.332500010728836,0.332500010728836,-0.2450000047683715
1.578325779563788,-0.0778359994292259,-0.9935680031776428,-0.0756400004029274,0.3499999940395355,0.4200000166893005,-0.2275000065565109
1.5985607254556313,-0.0797879993915557,-0.994055986404419,-0.0778359994292259,0.3149999976158142,0.3849999904632568,-0.2450000047683715
1.6187956713474747,-0.0773480013012886,-0.9921039938926696,-0.0761279985308647,0.4900000095367431,0.3499999940395355,-0.332500010728836
1.639030617239318,-0.076615996658802,-0.990884006023407,-0.0727119967341423,0.4025000035762787,0.332500010728836,-0.2800000011920929
1.6592655631311615,-0.0775920003652572,-0.9935680031776428,-0.0751519948244094,0.262499988079071,0.2975000143051147,-0.2100000083446502
1.6795005090230049,-0.0802759975194931,-0.9952759742736816,-0.0780799984931945,0.262499988079071,0.2100000083446502,-0.1924999952316284
1.6997354549148482,-0.0797879993915557,-0.9962520003318788,-0.0793000012636184,0.4724999964237213,0.1050000041723251,-0.2800000011920929
1.7199704008066916,-0.0775920003652572,-0.9916160106658936,-0.0744199976325035,0.6825000047683716,0.0874999985098838,-0.4375
1.740205346698535,-0.0746639966964721,-0.9906399846076964,-0.0736880004405975,0.5950000286102295,0.1924999952316284,-0.4375
1.7604402925903784,-0.0756400004029274,-0.9913719892501832,-0.0736880004405975,0.4375,0.332500010728836,-0.332500010728836
1.7806752384822218,-0.076615996658802,-0.990884006023407,-0.0729559957981109,0.3499999940395355,0.332500010728836,-0.2800000011920929
1.8009101843740651,-0.0783239975571632,-0.9945439696311952,-0.0741759985685348,0.262499988079071,0.262499988079071,-0.1749999970197677
1.8211451302659085,-0.0761279985308647,-0.9952759742736816,-0.0763719975948333,0.4550000131130218,0.3149999976158142,-0.262499988079071
1.841380076157752,-0.0783239975571632,-0.9950319528579712,-0.0773480013012886,0.5600000023841858,0.3675000071525574,-0.2975000143051147
1.8616150220495953,-0.0802759975194931,-0.9935680031776428,-0.0763719975948333,0.699999988079071,0.2800000011920929,-0.3849999904632568
1.8818499679414387,-0.0797879993915557,-0.9928359985351562,-0.0753960013389587,0.8050000071525574,0.1050000041723251,-0.4724999964237213
1.902084913833282,-0.0775920003652572,-0.9938119649887084,-0.0753960013389587,0.6650000214576721,0.0700000002980232,-0.4025000035762787
1.9223198597251254,-0.0785679966211319,-0.9945439696311952,-0.0778359994292259,0.4550000131130218,-0.1050000041723251,-0.2100000083446502
1.9425548056169688,-0.0793000012636184,-0.993079960346222,-0.0778359994292259,0.5950000286102295,-0.1225000023841857,-0.262499988079071
1.9627897515088122,-0.0773480013012886,-0.9943000078201294,-0.0783239975571632,0.5600000023841858,-0.1400000005960464,-0.332500010728836
1.9830246974006556,-0.0778359994292259,-0.9943000078201294,-0.0783239975571632,0.5425000190734863,-0.0175000000745058,-0.332500010728836
2.003259643292499,-0.0785679966211319,-0.9933239817619324,-0.0763719975948333,0.6299999952316284,0.0525000020861625,-0.3499999940395355
2.0234945891843426,-0.0773480013012886,-0.9911279678344728,-0.0763719975948333,0.5600000023841858,0.0350000001490116,-0.332500010728836
2.043729535076186,-0.0768599957227706,-0.9921039938926696,-0.0756400004029274,0.5074999928474426,0.0874999985098838,-0.2800000011920929
2.0639644809680293,-0.0773480013012886,-0.9933239817619324,-0.075883999466896,0.4550000131130218,0.0874999985098838,-0.2275000065565109
2.0841994268598727,-0.0771040022373199,-0.9950319528579712,-0.075883999466896,0.4900000095367431,0.1574999988079071,-0.262499988079071
2.104434372751716,-0.0763719975948333,-0.9947879910469056,-0.0753960013389587,0.5600000023841858,0.1225000023841857,-0.2800000011920929
2.1246693186435595,-0.0773480013012886,-0.9950319528579712,-0.0753960013389587,0.5600000023841858,0.2800000011920929,-0.3149999976158142
2.144904264535403,-0.0775920003652572,-0.9943000078201294,-0.0749079957604408,0.5950000286102295,0.2975000143051147,-0.4025000035762787
2.165139210427246,-0.0773480013012886,-0.993079960346222,-0.0739319995045661,0.6825000047683716,0.2800000011920929,-0.4375
2.1853741563190896,-0.0763719975948333,-0.9925919771194458,-0.0734440013766288,0.6299999952316284,0.2100000083446502,-0.3499999940395355
2.205609102210933,-0.0746639966964721,-0.993079960346222,-0.0732000023126602,0.6474999785423279,0.2975000143051147,-0.2975000143051147
2.2258440481027764,-0.0734440013766288,-0.9918599724769592,-0.0724679976701736,0.5600000023841858,0.3499999940395355,-0.2275000065565109
2.2460789939946197,-0.075883999466896,-0.9938119649887084,-0.071492001414299,0.4900000095367431,0.4375,-0.1924999952316284
2.266313939886463,-0.075883999466896,-0.9935680031776428,-0.071492001414299,0.4200000166893005,0.4550000131130218,-0.2100000083446502
2.2865488857783065,-0.0761279985308647,-0.993079960346222,-0.0707599967718124,0.4550000131130218,0.2975000143051147,-0.2450000047683715
2.30678383167015,-0.0768599957227706,-0.9933239817619324,-0.0705159977078437,0.4200000166893005,0.2450000047683715,-0.2100000083446502
2.3270187775619933,-0.0763719975948333,-0.9947879910469056,-0.0697840005159378,0.3499999940395355,0.1050000041723251,-0.1574999988079071
2.3472537234538366,-0.0751519948244094,-0.993079960346222,-0.0702719986438751,0.4550000131130218,-0.0350000001490116,-0.2275000065565109
2.36748866934568,-0.0749079957604408,-0.9935680031776428,-0.0692960023880004,0.5074999928474426,-0.1050000041723251,-0.2275000065565109
2.3877236152375234,-0.0741759985685348,-0.9938119649887084,-0.0705159977078437,0.612500011920929,-0.1924999952316284,-0.3675000071525574
2.407958561129367,-0.0739319995045661,-0.994055986404419,-0.0685639977455139,0.5774999856948853,-0.1574999988079071,-0.3149999976158142
2.42819350702121,-0.0739319995045661,-0.994055986404419,-0.0697840005159378,0.5249999761581421,-0.1225000023841857,-0.2800000011920929
2.4484284529130536,-0.0729559957981109,-0.9923479557037354,-0.0695400014519691,0.5249999761581421,-0.0874999985098838,-0.262499988079071
2.468663398804897,-0.0734440013766288,-0.9938119649887084,-0.0697840005159378,0.4550000131130218,0.0175000000745058,-0.2450000047683715
2.4888983446967403,-0.0734440013766288,-0.9938119649887084,-0.0712479948997497,0.4025000035762787,0.1225000023841857,-0.2450000047683715
2.5091332905885837,-0.0749079957604408,-0.995519995689392,-0.0707599967718124,0.4025000035762787,0.1400000005960464,-0.262499988079071
2.529368236480427,-0.0746639966964721,-0.9933239817619324,-0.0705159977078437,0.5249999761581421,0.1225000023841857,-0.262499988079071
2.5496031823722705,-0.0741759985685348,-0.9935680031776428,-0.0712479948997497,0.4724999964237213,0.1749999970197677,-0.2450000047683715
2.569838128264114,-0.0756400004029274,-0.9938119649887084,-0.0722239986062049,0.4200000166893005,0.0874999985098838,-0.1924999952316284
2.5900730741559572,-0.0761279985308647,-0.9945439696311952,-0.0712479948997497,0.5600000023841858,-0.0175000000745058,-0.2275000065565109
2.6103080200478006,-0.0756400004029274,-0.9943000078201294,-0.0712479948997497,0.5774999856948853,0.0175000000745058,-0.2275000065565109
2.630542965939644,-0.0763719975948333,-0.9947879910469056,-0.071492001414299,0.5249999761581421,0.0700000002980232,-0.2275000065565109
2.6507779118314874,-0.0761279985308647,-0.9945439696311952,-0.0717360004782676,0.6299999952316284,0.0175000000745058,-0.2800000011920929
2.6710128577233307,-0.0753960013389587,-0.993079960346222,-0.0710039958357811,0.6299999952316284,-0.0350000001490116,-0.3149999976158142
2.691247803615174,-0.0749079957604408,-0.994055986404419,-0.0719799995422363,0.4900000095367431,-0.0350000001490116,-0.2975000143051147
2.7114827495070175,-0.0756400004029274,-0.9938119649887084,-0.0717360004782676,0.4375,0.0874999985098838,-0.2975000143051147
2.731717695398861,-0.0739319995045661,-0.9933239817619324,-0.0710039958357811,0.4550000131130218,0.0350000001490116,-0.3149999976158142
2.7519526412907043,-0.0749079957604408,-0.993079960346222,-0.0712479948997497,0.332500010728836,0.1400000005960464,-0.262499988079071
2.7721875871825477,-0.0734440013766288,-0.994055986404419,-0.0707599967718124,0.262499988079071,0.1225000023841857,-0.2450000047683715
2.792422533074391,-0.0746639966964721,-0.993079960346222,-0.071492001414299,0.3675000071525574,0.1924999952316284,-0.2450000047683715
2.8126574789662344,-0.0739319995045661,-0.9947879910469056,-0.0717360004782676,0.332500010728836,0.2800000011920929,-0.2450000047683715
2.832892424858078,-0.0741759985685348,-0.9935680031776428,-0.071492001414299,0.3675000071525574,0.262499988079071,-0.2450000047683715
2.853127370749921,-0.0729559957981109,-0.993079960346222,-0.0695400014519691,0.3499999940395355,0.262499988079071,-0.2100000083446502
2.8733623166417646,-0.0751519948244094,-0.9925919771194458,-0.0690519958734512,0.262499988079071,0.2800000011920929,-0.1749999970197677
2.893597262533608,-0.0773480013012886,-0.9972279667854308,-0.0736880004405975,0.1050000041723251,0.2975000143051147,-0.1400000005960464
2.9138322084254513,-0.0773480013012886,-0.9945439696311952,-0.0719799995422363,0.3675000071525574,0.2275000065565109,-0.2450000047683715
2.9340671543172947,-0.0736880004405975,-0.9928359985351562,-0.0683199986815452,0.5249999761581421,0.262499988079071,-0.3149999976158142
2.954302100209138,-0.0712479948997497,-0.9925919771194458,-0.0680759996175766,0.4025000035762787,0.5425000190734863,-0.3499999940395355
2.9745370461009815,-0.0753960013389587,-0.9923479557037354,-0.0675880014896392,0.2275000065565109,0.7175000309944153,-0.2450000047683715
2.994771991992825,-0.075883999466896,-0.9960079789161682,-0.0688079968094825,0.1574999988079071,0.6825000047683716,-0.1400000005960464
3.0150069378846682,-0.0741759985685348,-0.9950319528579712,-0.0697840005159378,0.2450000047683715,0.6650000214576721,-0.1225000023841857
3.0352418837765116,-0.0746639966964721,-0.9962520003318788,-0.0702719986438751,0.3849999904632568,0.7175000309944153,-0.1400000005960464
3.055476829668355,-0.0768599957227706,-0.9950319528579712,-0.0712479948997497,0.4550000131130218,0.6650000214576721,-0.1749999970197677
3.0757117755601984,-0.076615996658802,-0.9935680031776428,-0.0719799995422363,0.5600000023841858,0.612500011920929,-0.2450000047683715
3.0959467214520417,-0.0763719975948333,-0.9933239817619324,-0.0697840005159378,0.5249999761581421,0.4900000095367431,-0.2975000143051147
3.116181667343885,-0.0746639966964721,-0.9923479557037354,-0.0688079968094825,0.5074999928474426,0.4200000166893005,-0.262499988079071
3.1364166132357285,-0.0746639966964721,-0.990884006023407,-0.0692960023880004,0.4025000035762787,0.3499999940395355,-0.1924999952316284
3.156651559127572,-0.0771040022373199,-0.9962520003318788,-0.071492001414299,0.2450000047683715,0.2100000083446502,-0.1050000041723251
3.1768865050194153,-0.0768599957227706,-0.9935680031776428,-0.0695400014519691,0.4025000035762787,0.0350000001490116,-0.1225000023841857
3.1971214509112587,-0.0749079957604408,-0.9933239817619324,-0.0717360004782676,0.3149999976158142,0.0175000000745058,-0.1400000005960464
3.217356396803102,-0.0753960013389587,-0.9957639575004578,-0.0722239986062049,0.2450000047683715,0.1749999970197677,-0.1574999988079071
3.2375913426949454,-0.0775920003652572,-0.9935680031776428,-0.0717360004782676,0.3499999940395355,0.1924999952316284,-0.1749999970197677
3.257826288586789,-0.0778359994292259,-0.9923479557037354,-0.0719799995422363,0.262499988079071,0.1400000005960464,-0.1749999970197677
3.278061234478632,-0.075883999466896,-0.9925919771194458,-0.0712479948997497,0.332500010728836,0.0525000020861625,-0.1225000023841857
3.2982961803704756,-0.0749079957604408,-0.9943000078201294,-0.0712479948997497,0.262499988079071,-0.0175000000745058,-0.0350000001490116
3.318531126262319,-0.0744199976325035,-0.9923479557037354,-0.0724679976701736,0.3149999976158142,0.1225000023841857,-0.1050000041723251
3.3387660721541623,-0.0749079957604408,-0.9928359985351562,-0.0719799995422363,0.2450000047683715,0.1749999970197677,-0.1400000005960464
3.3590010180460057,-0.0768599957227706,-0.9947879910469056,-0.0724679976701736,0.262499988079071,0.2450000047683715,-0.1400000005960464
3.379235963937849,-0.0763719975948333,-0.9952759742736816,-0.071492001414299,0.4025000035762787,0.2450000047683715,-0.1400000005960464
3.3994709098296925,-0.0761279985308647,-0.9943000078201294,-0.0722239986062049,0.4550000131130218,0.2975000143051147,-0.1749999970197677
3.419705855721536,-0.0753960013389587,-0.994055986404419,-0.0707599967718124,0.4200000166893005,0.3149999976158142,-0.1749999970197677
3.4399408016133792,-0.0749079957604408,-0.9925919771194458,-0.0717360004782676,0.3675000071525574,0.3849999904632568,-0.1400000005960464
3.4601757475052226,-0.075883999466896,-0.9916160106658936,-0.0702719986438751,0.3849999904632568,0.4900000095367431,-0.1400000005960464
3.480410693397066,-0.0761279985308647,-0.9928359985351562,-0.0707599967718124,0.2800000011920929,0.4900000095367431,-0.0874999985098838
3.5006456392889094,-0.075883999466896,-0.9933239817619324,-0.0705159977078437,0.2450000047683715,0.4724999964237213,-0.0175000000745058
3.5208805851807528,-0.0756400004029274,-0.9943000078201294,-0.071492001414299,0.1924999952316284,0.4550000131130218,-0.0350000001490116
3.541115531072596,-0.0751519948244094,-0.9938119649887084,-0.0707599967718124,0.1574999988079071,0.3849999904632568,-0.0175000000745058
3.5613504769644395,-0.0763719975948333,-0.9945439696311952,-0.0700279995799064,0.0700000002980232,0.3675000071525574,0.0175000000745058
3.581585422856283,-0.0753960013389587,-0.9938119649887084,-0.0690519958734512,0.0874999985098838,0.2100000083446502,-0.0175000000745058
3.6018203687481263,-0.075883999466896,-0.9935680031776428,-0.0680759996175766,0.0525000020861625,0.1749999970197677,0.0350000001490116
3.6220553146399697,-0.0751519948244094,-0.9935680031776428,-0.0680759996175766,0.0350000001490116,0.0874999985098838,0.0700000002980232
3.642290260531813,-0.0749079957604408,-0.993079960346222,-0.0683199986815452,0.0350000001490116,0.0874999985098838,0.0874999985098838
3.6625252064236564,-0.0756400004029274,-0.9923479557037354,-0.0685639977455139,0.0175000000745058,0.0175000000745058,0.1400000005960464
3.6827601523155,-0.075883999466896,-0.9945439696311952,-0.0697840005159378,0.0175000000745058,-0.0175000000745058,0.1400000005960464
3.702995098207343,-0.075883999466896,-0.9925919771194458,-0.0678320005536079,0.0350000001490116,0.0525000020861625,0.1400000005960464
3.7232300440991866,-0.075883999466896,-0.9943000078201294,-0.0683199986815452,-0.0525000020861625,0.0525000020861625,0.1400000005960464
3.74346498999103,-0.076615996658802,-0.9938119649887084,-0.0688079968094825,-0.0350000001490116,-0.0175000000745058,0.1225000023841857
3.7636999358828733,-0.0775920003652572,-0.994055986404419,-0.0683199986815452,0.0175000000745058,-0.0525000020861625,0.1050000041723251
3.7839348817747167,-0.0756400004029274,-0.9947879910469056,-0.0690519958734512,-0.0350000001490116,-0.1924999952316284,0.0700000002980232
3.80416982766656,-0.076615996658802,-0.9945439696311952,-0.0695400014519691,-0.0175000000745058,-0.1749999970197677,0.0700000002980232
3.8244047735584035,-0.0763719975948333,-0.9938119649887084,-0.0702719986438751,-0.1225000023841857,-0.1924999952316284,0.1400000005960464
3.844639719450247,-0.0751519948244094,-0.9925919771194458,-0.0683199986815452,-0.1050000041723251,-0.2275000065565109,0.1574999988079071
3.8648746653420902,-0.075883999466896,-0.9928359985351562,-0.0688079968094825,-0.1749999970197677,-0.2800000011920929,0.1924999952316284
3.8851096112339336,-0.0753960013389587,-0.994055986404419,-0.0705159977078437,-0.2450000047683715,-0.1400000005960464,0.2450000047683715
3.905344557125777,-0.076615996658802,-0.994055986404419,-0.0695400014519691,-0.262499988079071,-0.1050000041723251,0.2450000047683715
3.9255795030176204,-0.0763719975948333,-0.9928359985351562,-0.0702719986438751,-0.332500010728836,-0.0874999985098838,0.2275000065565109
3.9458144489094638,-0.0763719975948333,-0.9950319528579712,-0.0705159977078437,-0.4375,0.0350000001490116,0.2275000065565109
3.966049394801307,-0.0778359994292259,-0.9943000078201294,-0.0710039958357811,-0.4025000035762787,0.0175000000745058,0.1574999988079071
3.9862843406931505,-0.0768599957227706,-0.9952759742736816,-0.0712479948997497,-0.3149999976158142,0.0700000002980232,0.1400000005960464
4.006519286584994,-0.0768599957227706,-0.9933239817619324,-0.0712479948997497,-0.2275000065565109,0.0700000002980232,0.1225000023841857
4.026754232476837,-0.0749079957604408,-0.9918599724769592,-0.0695400014519691,-0.332500010728836,0.1050000041723251,0.1225000023841857
4.046989178368681,-0.076615996658802,-0.9950319528579712,-0.0729559957981109,-0.5074999928474426,0.1749999970197677,0.1400000005960464
4.067224124260524,-0.0795440003275871,-0.9991799592971802,-0.0773480013012886,-0.4724999964237213,0.2800000011920929,0.0350000001490116
4.087459070152367,-0.0802759975194931,-0.9957639575004578,-0.0763719975948333,-0.0700000002980232,0.2975000143051147,-0.1400000005960464
4.107694016044211,-0.0788119956851005,-0.9894199967384338,-0.0724679976701736,0.2100000083446502,0.3149999976158142,-0.2450000047683715
4.127928961936054,-0.0744199976325035,-0.990884006023407,-0.0739319995045661,-0.0874999985098838,0.4724999964237213,-0.2275000065565109
4.148163907827898,-0.0773480013012886,-0.990884006023407,-0.0724679976701736,-0.262499988079071,0.7875000238418579,-0.0874999985098838
4.168398853719741,-0.0795440003275871,-0.994055986404419,-0.0749079957604408,-0.3675000071525574,0.8575000166893005,-0.0175000000745058
4.188633799611584,-0.0795440003275871,-0.9947879910469056,-0.075883999466896,-0.2275000065565109,0.962499976158142,0.0350000001490116
4.208868745503428,-0.0785679966211319,-0.993079960346222,-0.076615996658802,-0.0525000020861625,0.9275000095367432,-0.0350000001490116
4.229103691395271,-0.0807639956474304,-0.9947879910469056,-0.075883999466896,-0.0350000001490116,0.8400000333786011,0.0175000000745058
4.2493386372871145,-0.0785679966211319,-0.9916160106658936,-0.0734440013766288,0.1749999970197677,0.7350000143051147,-0.0874999985098838
4.269573583178958,-0.0771040022373199,-0.990884006023407,-0.0736880004405975,0.0350000001490116,0.6825000047683716,-0.0700000002980232
4.289808529070801,-0.0802759975194931,-0.9938119649887084,-0.0753960013389587,-0.2100000083446502,0.6825000047683716,0.0525000020861625
4.310043474962645,-0.0802759975194931,-0.995519995689392,-0.075883999466896,-0.1050000041723251,0.5249999761581421,0.0525000020861625
4.330278420854488,-0.0768599957227706,-0.9943000078201294,-0.076615996658802,-0.1225000023841857,0.4375,0.0525000020861625
4.350513366746331,-0.0783239975571632,-0.9950319528579712,-0.0771040022373199,-0.1050000041723251,0.5425000190734863,-0.0525000020861625
4.370748312638175,-0.0814960002899169,-0.9921039938926696,-0.0741759985685348,0.0175000000745058,0.4200000166893005,-0.1225000023841857
4.390983258530018,-0.0780799984931945,-0.9935680031776428,-0.0736880004405975,-0.0700000002980232,0.4375,-0.0525000020861625
4.4112182044218615,-0.0771040022373199,-0.993079960346222,-0.076615996658802,-0.0525000020861625,0.3675000071525574,-0.0175000000745058
4.431453150313705,-0.0778359994292259,-0.9960079789161682,-0.0780799984931945,-0.0700000002980232,0.4900000095367431,-0.0175000000745058
4.451688096205548,-0.0797879993915557,-0.994055986404419,-0.0785679966211319,0.0874999985098838,0.4724999964237213,-0.0525000020861625
4.471923042097392,-0.0822279974818229,-0.9928359985351562,-0.0775920003652572,0.1749999970197677,0.332500010728836,-0.0874999985098838
4.492157987989235,-0.0829599946737289,-0.9933239817619324,-0.0771040022373199,0.1225000023841857,0.1924999952316284,-0.0525000020861625
4.512392933881078,-0.0807639956474304,-0.9943000078201294,-0.0795440003275871,0.1225000023841857,0.0874999985098838,-0.1225000023841857
4.532627879772922,-0.0795440003275871,-0.9923479557037354,-0.0790559947490692,0.4200000166893005,0.0175000000745058,-0.2275000065565109
4.552862825664765,-0.0778359994292259,-0.9906399846076964,-0.0788119956851005,0.4900000095367431,0.0874999985098838,-0.3499999940395355
4.573097771556609,-0.0788119956851005,-0.9911279678344728,-0.0768599957227706,0.262499988079071,0.0700000002980232,-0.262499988079071
4.593332717448452,-0.0793000012636184,-0.9933239817619324,-0.0785679966211319,0.0175000000745058,0.0874999985098838,-0.1225000023841857
4.613567663340295,-0.0788119956851005,-0.9921039938926696,-0.0771040022373199,0.1574999988079071,-0.0525000020861625,-0.1050000041723251
4.633802609232139,-0.0780799984931945,-0.9913719892501832,-0.0771040022373199,0.0874999985098838,-0.0350000001490116,-0.1050000041723251
4.654037555123982,-0.0790559947490692,-0.9923479557037354,-0.0756400004029274,0.0700000002980232,0.0175000000745058,-0.1225000023841857
4.6742725010158255,-0.0802759975194931,-0.9935680031776428,-0.076615996658802,0.0175000000745058,0.0700000002980232,-0.1574999988079071
4.694507446907669,-0.0788119956851005,-0.9935680031776428,-0.076615996658802,0.0350000001490116,0.0350000001490116,-0.1400000005960464
4.714742392799512,-0.0771040022373199,-0.9925919771194458,-0.0773480013012886,0.1924999952316284,0.1225000023841857,-0.1225000023841857
4.734977338691356,-0.0771040022373199,-0.9943000078201294,-0.0771040022373199,0.1749999970197677,0.2450000047683715,-0.1225000023841857
4.755212284583199,-0.0775920003652572,-0.9923479557037354,-0.0771040022373199,0.262499988079071,0.2800000011920929,-0.1400000005960464
4.775447230475042,-0.0771040022373199,-0.9921039938926696,-0.0775920003652572,0.2275000065565109,0.4375,-0.0874999985098838
4.795682176366886,-0.0788119956851005,-0.9933239817619324,-0.0775920003652572,0.1574999988079071,0.4550000131130218,-0.0525000020861625
4.815917122258729,-0.0802759975194931,-0.9933239817619324,-0.0775920003652572,0.2450000047683715,0.4550000131130218,-0.1050000041723251
4.8361520681505725,-0.0797879993915557,-0.9921039938926696,-0.076615996658802,0.2450000047683715,0.4200000166893005,-0.1225000023841857
4.856387014042416,-0.0805199965834617,-0.9928359985351562,-0.0780799984931945,0.1400000005960464,0.4375,-0.0700000002980232
4.876621959934259,-0.0800319984555244,-0.9911279678344728,-0.0771040022373199,0.2100000083446502,0.3149999976158142,-0.1050000041723251
4.896856905826103,-0.0790559947490692,-0.9938119649887084,-0.0768599957227706,0.2100000083446502,0.1749999970197677,-0.1050000041723251
4.917091851717946,-0.0790559947490692,-0.9938119649887084,-0.0773480013012886,0.1225000023841857,0.1749999970197677,-0.0350000001490116
4.937326797609789,-0.0785679966211319,-0.9933239817619324,-0.0768599957227706,0.1400000005960464,0.1574999988079071,-0.0874999985098838
4.957561743501633,-0.0790559947490692,-0.9935680031776428,-0.0780799984931945,0.1574999988079071,0.1400000005960464,-0.0525000020861625
4.977796689393476,-0.0788119956851005,-0.9945439696311952,-0.0780799984931945,0.2275000065565109,0.1400000005960464,-0.0525000020861625
4.99803163528532,-0.0783239975571632,-0.9938119649887084,-0.0785679966211319,0.1924999952316284,0.1400000005960464,-0.0874999985098838
5.018266581177163,-0.0785679966211319,-0.994055986404419,-0.0778359994292259,0.332500010728836,0.0350000001490116,-0.1400000005960464
5.038501527069006,-0.0805199965834617,-0.9938119649887084,-0.0795440003275871,0.2450000047683715,0.1749999970197677,-0.0525000020861625
5.05873647296085,-0.0785679966211319,-0.9923479557037354,-0.0783239975571632,0.332500010728836,0.1050000041723251,-0.0874999985098838
5.078971418852693,-0.0775920003652572,-0.9913719892501832,-0.0756400004029274,0.2975000143051147,0.0525000020861625,-0.0525000020861625
5.0992063647445365,-0.0778359994292259,-0.9906399846076964,-0.076615996658802,0.1400000005960464,0.1574999988079071,0.0175000000745058
5.11944131063638,-0.0795440003275871,-0.9952759742736816,-0.0802759975194931,-0.0350000001490116,0.1574999988079071,0.0700000002980232
5.139676256528223,-0.0810080021619796,-0.9950319528579712,-0.0797879993915557,0.1225000023841857,0.0350000001490116,-0.0175000000745058
5.159911202420067,-0.0790559947490692,-0.9913719892501832,-0.0761279985308647,0.2975000143051147,-0.0175000000745058,-0.1400000005960464
5.18014614831191,-0.0773480013012886,-0.9911279678344728,-0.0768599957227706,0.1574999988079071,0.0700000002980232,-0.1050000041723251
5.200381094203753,-0.0768599957227706,-0.9923479557037354,-0.0746639966964721,0.0525000020861625,0.1924999952316284,-0.0175000000745058
5.220616040095597,-0.0773480013012886,-0.990884006023407,-0.0746639966964721,-0.0350000001490116,0.2800000011920929,0.0350000001490116
5.24085098598744,-0.0785679966211319,-0.9962520003318788,-0.0768599957227706,0.0175000000745058,0.4025000035762787,0.1050000041723251
5.2610859318792835,-0.0783239975571632,-0.9957639575004578,-0.0761279985308647,0.2275000065565109,0.4025000035762787,0.0175000000745058
5.281320877771127,-0.0800319984555244,-0.994055986404419,-0.0785679966211319,0.2100000083446502,0.4375,-0.0175000000745058
5.30155582366297,-0.0812520012259483,-0.993079960346222,-0.0773480013012886,0.2450000047683715,0.4200000166893005,-0.1050000041723251
5.321790769554814,-0.0812520012259483,-0.993079960346222,-0.0763719975948333,0.4025000035762787,0.332500010728836,-0.1574999988079071
5.342025715446657,-0.0814960002899169,-0.9877119660377502,-0.0749079957604408,0.3675000071525574,0.2450000047683715,-0.1574999988079071
5.3622606613385,-0.0819839984178543,-0.990884006023407,-0.0746639966964721,0.0350000001490116,0.1400000005960464,-0.0525000020861625
5.382495607230344,-0.0824719965457916,-0.9918599724769592,-0.0785679966211319,0.1574999988079071,-0.3849999904632568,-0.0525000020861625
5.402730553122187,-0.0812520012259483,-0.9943000078201294,-0.0790559947490692,0.1400000005960464,-0.4550000131130218,-0.0525000020861625
5.422965499014031,-0.0812520012259483,-0.9967399835586548,-0.0797879993915557,0.1749999970197677,-0.4375,-0.1225000023841857
5.443200444905874,-0.0822279974818229,-0.9925919771194458,-0.0793000012636184,0.4724999964237213,-0.5074999928474426,-0.2100000083446502
5.463435390797717,-0.0812520012259483,-0.9913719892501832,-0.0793000012636184,0.5600000023841858,-0.5425000190734863,-0.2275000065565109
5.483670336689561,-0.0790559947490692,-0.990884006023407,-0.0775920003652572,0.4550000131130218,-0.4900000095367431,-0.1574999988079071
5.503905282581404,-0.0797879993915557,-0.9894199967384338,-0.0788119956851005,0.2800000011920929,-0.3849999904632568,-0.0874999985098838
5.5241402284732475,-0.0819839984178543,-0.995519995689392,-0.0793000012636184,0.1050000041723251,-0.2975000143051147,-0.0175000000745058
5.544375174365091,-0.0834480002522468,-0.9950319528579712,-0.0805199965834617,0.1749999970197677,-0.262499988079071,-0.0350000001490116
5.564610120256934,-0.0827159956097602,-0.9925919771194458,-0.0795440003275871,0.3849999904632568,-0.2975000143051147,-0.1749999970197677
5.584845066148778,-0.0810080021619796,-0.9918599724769592,-0.0788119956851005,0.3499999940395355,-0.2450000047683715,-0.1400000005960464
5.605080012040621,-0.0805199965834617,-0.9935680031776428,-0.0793000012636184,0.2975000143051147,-0.1749999970197677,-0.1050000041723251
5.625314957932464,-0.0790559947490692,-0.994055986404419,-0.0800319984555244,0.3675000071525574,-0.1924999952316284,-0.1225000023841857
5.645549903824308,-0.0797879993915557,-0.993079960346222,-0.0793000012636184,0.4200000166893005,-0.1225000023841857,-0.1225000023841857
5.665784849716151,-0.0797879993915557,-0.9918599724769592,-0.0783239975571632,0.3149999976158142,-0.0175000000745058,-0.1574999988079071
5.6860197956079945,-0.0805199965834617,-0.9950319528579712,-0.0795440003275871,0.3149999976158142,-0.0175000000745058,-0.1924999952316284
5.706254741499838,-0.0812520012259483,-0.9945439696311952,-0.0797879993915557,0.4375,-0.0350000001490116,-0.262499988079071
5.726489687391681,-0.0817399993538856,-0.9918599724769592,-0.0793000012636184,0.4550000131130218,-0.0175000000745058,-0.2450000047683715
5.746724633283525,-0.0817399993538856,-0.9925919771194458,-0.0795440003275871,0.4200000166893005,-0.0525000020861625,-0.2450000047683715
5.766959579175368,-0.0810080021619796,-0.9928359985351562,-0.0788119956851005,0.5249999761581421,-0.0700000002980232,-0.2975000143051147
5.787194525067211,-0.0800319984555244,-0.9943000078201294,-0.0788119956851005,0.4375,-0.1050000041723251,-0.262499988079071
5.807429470959055,-0.0795440003275871,-0.9916160106658936,-0.0783239975571632,0.5074999928474426,-0.0700000002980232,-0.262499988079071
5.827664416850898,-0.0788119956851005,-0.9921039938926696,-0.0785679966211319,0.5074999928474426,0.1050000041723251,-0.2800000011920929
5.847899362742742,-0.0802759975194931,-0.9938119649887084,-0.0778359994292259,0.4900000095367431,0.0700000002980232,-0.262499988079071
5.868134308634585,-0.0790559947490692,-0.9928359985351562,-0.0780799984931945,0.5774999856948853,0.1050000041723251,-0.262499988079071
5.888369254526428,-0.0797879993915557,-0.9921039938926696,-0.0778359994292259,0.5774999856948853,0.1924999952316284,-0.2275000065565109
5.908604200418272,-0.0795440003275871,-0.993079960346222,-0.0783239975571632,0.5600000023841858,0.2275000065565109,-0.2100000083446502
5.928839146310115,-0.0814960002899169,-0.993079960346222,-0.0773480013012886,0.5950000286102295,0.262499988079071,-0.2275000065565109
5.9490740922019585,-0.0810080021619796,-0.993079960346222,-0.0763719975948333,0.5600000023841858,0.1574999988079071,-0.2450000047683715
5.969309038093802,-0.0802759975194931,-0.9923479557037354,-0.0749079957604408,0.4900000095367431,0.0350000001490116,-0.2100000083446502
5.989543983985645,-0.0778359994292259,-0.9918599724769592,-0.0741759985685348,0.4375,-0.0175000000745058,-0.1924999952316284
6.009778929877489,-0.0775920003652572,-0.9928359985351562,-0.0744199976325035,0.332500010728836,-0.0175000000745058,-0.1749999970197677
6.030013875769332,-0.076615996658802,-0.9947879910469056,-0.0736880004405975,0.2450000047683715,0.0350000001490116,-0.1050000041723251
6.050248821661175,-0.0788119956851005,-0.994055986404419,-0.0744199976325035,0.3499999940395355,0.0874999985098838,-0.0350000001490116
6.070483767553019,-0.0783239975571632,-0.995519995689392,-0.075883999466896,0.4724999964237213,0.2275000065565109,-0.1050000041723251
6.090718713444862,-0.0775920003652572,-0.9933239817619324,-0.0749079957604408,0.5950000286102295,0.4025000035762787,-0.1924999952316284
6.1109536593367055,-0.0763719975948333,-0.9911279678344728,-0.0705159977078437,0.6474999785423279,0.4375,-0.1574999988079071
6.131188605228549,-0.0805199965834617,-0.9933239817619324,-0.0746639966964721,0.4025000035762787,0.4724999964237213,-0.0700000002980232
6.151423551120392,-0.0822279974818229,-0.9964959621429444,-0.0771040022373199,0.2800000011920929,0.4550000131130218,-0.0874999985098838
6.171658497012236,-0.0829599946737289,-0.9935680031776428,-0.0763719975948333,0.4724999964237213,0.3675000071525574,-0.1574999988079071
6.191893442904079,-0.0805199965834617,-0.9862479567527772,-0.0692960023880004,0.5425000190734863,0.1400000005960464,-0.1924999952316284
6.212128388795922,-0.0795440003275871,-0.9916160106658936,-0.0700279995799064,-0.3499999940395355,0.1050000041723251,0.1749999970197677
6.232363334687766,-0.0819839984178543,-0.9918599724769592,-0.0719799995422363,-0.2975000143051147,-0.1050000041723251,0.2275000065565109
6.252598280579609,-0.0836919993162155,-0.9945439696311952,-0.0746639966964721,-0.2100000083446502,-0.2975000143051147,0.262499988079071
6.272833226471453,-0.0795440003275871,-0.9952759742736816,-0.0751519948244094,0.2275000065565109,-0.6650000214576721,0.1574999988079071
6.293068172363296,-0.0810080021619796,-0.9938119649887084,-0.0751519948244094,0.2450000047683715,-0.7524999976158142,0.1574999988079071
6.313303118255139,-0.0817399993538856,-0.9943000078201294,-0.0746639966964721,0.2450000047683715,-0.9100000262260436,0.0525000020861625
6.333538064146983,-0.0788119956851005,-0.9911279678344728,-0.0724679976701736,0.3149999976158142,-1.1549999713897705,-0.1050000041723251
6.353773010038826,-0.0771040022373199,-0.9906399846076964,-0.0736880004405975,0.1050000041723251,-1.1024999618530271,-0.0525000020861625
6.3740079559306695,-0.0771040022373199,-0.994055986404419,-0.0761279985308647,-0.1749999970197677,-0.962499976158142,0.0350000001490116
6.394242901822513,-0.0751519948244094,-0.994055986404419,-0.0736880004405975,-0.1225000023841857,-0.8224999904632568,0.0874999985098838
6.414477847714356,-0.0771040022373199,-0.993079960346222,-0.0741759985685348,-0.1400000005960464,-0.6299999952316284,0.1050000041723251
6.4347127936062,-0.0805199965834617,-0.9950319528579712,-0.0761279985308647,-0.1749999970197677,-0.4375,0.1574999988079071
6.454947739498043,-0.0788119956851005,-0.995519995689392,-0.0751519948244094,-0.0700000002980232,-0.3499999940395355,0.1400000005960464
6.475182685389886,-0.0780799984931945,-0.9918599724769592,-0.0736880004405975,0.0350000001490116,-0.2275000065565109,0.1400000005960464
6.49541763128173,-0.0761279985308647,-0.9896639585494996,-0.0722239986062049,-0.1400000005960464,-0.0700000002980232,0.1400000005960464
6.515652577173573,-0.0768599957227706,-0.9901520013809204,-0.0710039958357811,-0.3149999976158142,0.1050000041723251,0.1924999952316284
6.5358875230654165,-0.0790559947490692,-0.9925919771194458,-0.0712479948997497,-0.4200000166893005,0.2450000047683715,0.2975000143051147
6.55612246895726,-0.0800319984555244,-0.993079960346222,-0.0722239986062049,-0.3849999904632568,0.2975000143051147,0.262499988079071
6.576357414849103,-0.0805199965834617,-0.9938119649887084,-0.0729559957981109,-0.4200000166893005,0.3149999976158142,0.2450000047683715
6.596592360740947,-0.0800319984555244,-0.9960079789161682,-0.0753960013389587,-0.3675000071525574,0.4375,0.2450000047683715
6.61682730663279,-0.0790559947490692,-0.9943000078201294,-0.075883999466896,-0.1400000005960464,0.5249999761581421,0.1574999988079071
6.637062252524633,-0.0780799984931945,-0.9925919771194458,-0.0744199976325035,-0.0350000001490116,0.6650000214576721,0.0874999985098838
6.657297198416477,-0.0795440003275871,-0.9938119649887084,-0.0739319995045661,-0.1050000041723251,0.6825000047683716,0.0874999985098838
6.67753214430832,-0.0800319984555244,-0.9918599724769592,-0.0734440013766288,-0.1574999988079071,0.875,0.1050000041723251
6.697767090200164,-0.0814960002899169,-0.9916160106658936,-0.0749079957604408,-0.2275000065565109,0.962499976158142,0.1050000041723251
6.718002036092007,-0.0824719965457916,-0.993079960346222,-0.0763719975948333,-0.3675000071525574,1.0325000286102295,0.1924999952316284
6.73823698198385,-0.0829599946737289,-0.9938119649887084,-0.0780799984931945,-0.4025000035762787,1.1200000047683716,0.1400000005960464
6.758471927875694,-0.0832040011882782,-0.9933239817619324,-0.0773480013012886,-0.3675000071525574,1.1549999713897705,0.0874999985098838
6.778706873767537,-0.0834480002522468,-0.993079960346222,-0.0771040022373199,-0.4025000035762787,1.1725000143051147,0.1050000041723251
6.7989418196593805,-0.0841799974441528,-0.9928359985351562,-0.0785679966211319,-0.3499999940395355,1.1024999618530271,0.0525000020861625
6.819176765551224,-0.0844239965081214,-0.9935680031776428,-0.0797879993915557,-0.4200000166893005,1.0850000381469729,0.0525000020861625
6.839411711443067,-0.085156001150608,-0.9918599724769592,-0.0810080021619796,-0.332500010728836,0.9975000023841858,-0.0525000020861625
6.859646657334911,-0.0839359983801841,-0.9923479557037354,-0.0810080021619796,-0.4025000035762787,1.0149999856948853,-0.0525000020861625
6.879881603226754,-0.085156001150608,-0.9925919771194458,-0.0814960002899169,-0.4550000131130218,0.9800000190734864,-0.0350000001490116
6.900116549118597,-0.0861319974064827,-0.9921039938926696,-0.0824719965457916,-0.4550000131130218,1.0499999523162842,-0.0525000020861625
6.920351495010441,-0.0854000002145767,-0.9901520013809204,-0.0827159956097602,-0.4375,1.0499999523162842,-0.0525000020861625
6.940586440902284,-0.0861319974064827,-0.9916160106658936,-0.0836919993162155,-0.6474999785423279,1.0325000286102295,0.1225000023841857
6.9608213867941275,-0.0863759964704513,-0.9921039938926696,-0.0856439992785453,-0.612500011920929,1.0499999523162842,0.1924999952316284
6.981056332685971,-0.0875959992408752,-0.9923479557037354,-0.0846679955720901,-0.612500011920929,1.0674999952316284,0.1574999988079071
7.001291278577814,-0.0885719954967498,-0.9918599724769592,-0.085156001150608,-0.5425000190734863,1.1024999618530271,0.1050000041723251
7.021526224469658,-0.0897919982671737,-0.9925919771194458,-0.0841799974441528,-0.5074999928474426,1.0674999952316284,0.1225000023841857
7.041761170361501,-0.0897919982671737,-0.9935680031776428,-0.0846679955720901,-0.5249999761581421,0.962499976158142,0.1050000041723251
7.0619961162533444,-0.0885719954967498,-0.9938119649887084,-0.0836919993162155,-0.332500010728836,0.875,0.0350000001490116
7.082231062145188,-0.0863759964704513,-0.9918599724769592,-0.0846679955720901,-0.3149999976158142,0.7524999976158142,0.0525000020861625
7.102466008037031,-0.0856439992785453,-0.9913719892501832,-0.085887998342514,-0.3499999940395355,0.7875000238418579,0.0700000002980232
7.122700953928875,-0.0875959992408752,-0.9918599724769592,-0.0880839973688125,-0.3675000071525574,0.7524999976158142,0.0700000002980232
7.142935899820718,-0.0878399983048439,-0.990395963191986,-0.0844239965081214,-0.2100000083446502,0.7699999809265137,0.0874999985098838
7.163170845712561,-0.0883279964327812,-0.9913719892501832,-0.0880839973688125,-0.4025000035762787,0.8224999904632568,0.1225000023841857
7.183405791604405,-0.0914999991655349,-0.9950319528579712,-0.0919879972934722,-0.3149999976158142,0.7175000309944153,0.0525000020861625
7.203640737496248,-0.0932080000638961,-0.9952759742736816,-0.0917439982295036,0.1050000041723251,0.3849999904632568,-0.1400000005960464
7.2238756833880915,-0.0927200019359588,-0.9928359985351562,-0.0912560001015663,0.3675000071525574,0.1574999988079071,-0.3499999940395355
7.244110629279935,-0.0863759964704513,-0.9913719892501832,-0.0922319963574409,0.4025000035762787,0.1225000023841857,-0.4900000095367431
7.264345575171778,-0.0829599946737289,-0.9855159521102904,-0.0900359973311424,0.262499988079071,0.2975000143051147,-0.5074999928474426
7.284580521063622,-0.0817399993538856,-0.986735999584198,-0.0861319974064827,-0.1400000005960464,0.4900000095367431,-0.4200000166893005
7.304815466955465,-0.0824719965457916,-0.9901520013809204,-0.0846679955720901,-0.4375,0.7524999976158142,-0.262499988079071
7.325050412847308,-0.0807639956474304,-0.9906399846076964,-0.0844239965081214,-0.4724999964237213,0.8924999833106995,-0.1225000023841857
7.345285358739152,-0.0832040011882782,-0.9911279678344728,-0.085887998342514,-0.4025000035762787,0.962499976158142,0.0525000020861625
7.365520304630995,-0.0895479992032051,-0.9943000078201294,-0.0878399983048439,-0.4200000166893005,0.8924999833106995,0.0175000000745058
7.3857552505228385,-0.0897919982671737,-0.993079960346222,-0.0846679955720901,-0.1225000023841857,0.5774999856948853,-0.1749999970197677
7.405990196414682,-0.0875959992408752,-0.9906399846076964,-0.0802759975194931,-0.0350000001490116,0.2975000143051147,-0.2275000065565109
7.426225142306525,-0.085156001150608,-0.994055986404419,-0.0827159956097602,-0.1574999988079071,0.0350000001490116,-0.1749999970197677
7.446460088198369,-0.0832040011882782,-0.9962520003318788,-0.0868639945983886,0.0350000001490116,-0.1400000005960464,-0.2275000065565109
7.466695034090212,-0.0817399993538856,-0.9921039938926696,-0.0868639945983886,0.3675000071525574,-0.3149999976158142,-0.332500010728836
7.4869299799820554,-0.0814960002899169,-0.9901520013809204,-0.0868639945983886,0.4025000035762787,-0.3849999904632568,-0.3675000071525574
7.507164925873899,-0.0795440003275871,-0.9911279678344728,-0.0849120020866394,0.2100000083446502,-0.4025000035762787,-0.2800000011920929
7.527399871765742,-0.0814960002899169,-0.9906399846076964,-0.0871080011129379,0.0874999985098838,0.1225000023841857,-0.2450000047683715
7.547634817657586,-0.0817399993538856,-0.9923479557037354,-0.0871080011129379,0.0525000020861625,0.1400000005960464,-0.1924999952316284
7.567869763549429,-0.0829599946737289,-0.9916160106658936,-0.0871080011129379,0.1225000023841857,0.1924999952316284,-0.1400000005960464
7.588104709441272,-0.0849120020866394,-0.9925919771194458,-0.0863759964704513,0.1574999988079071,0.1574999988079071,-0.1225000023841857
7.608339655333116,-0.0829599946737289,-0.990884006023407,-0.0846679955720901,0.2800000011920929,0.0874999985098838,-0.1225000023841857
7.628574601224959,-0.0812520012259483,-0.9933239817619324,-0.0868639945983886,0.0350000001490116,0.0874999985098838,-0.0700000002980232
7.6488095471168025,-0.0812520012259483,-0.994055986404419,-0.0878399983048439,0.1574999988079071,0.2450000047683715,-0.1749999970197677
7.669044493008646,-0.0790559947490692,-0.9913719892501832,-0.085156001150608,0.4200000166893005,0.2450000047683715,-0.2450000047683715
7.689279438900489,-0.0771040022373199,-0.9906399846076964,-0.0841799974441528,0.3149999976158142,0.3149999976158142,-0.1924999952316284
7.709514384792333,-0.0778359994292259,-0.9918599724769592,-0.0829599946737289,0.0525000020861625,0.4724999964237213,-0.1050000041723251
7.729749330684176,-0.0780799984931945,-0.9935680031776428,-0.0841799974441528,0.0175000000745058,0.5950000286102295,-0.0525000020861625
7.749984276576019,-0.0793000012636184,-0.9916160106658936,-0.0863759964704513,0.1400000005960464,0.6299999952316284,-0.0700000002980232
7.770219222467863,-0.0810080021619796,-0.990884006023407,-0.085156001150608,0.1924999952316284,0.5600000023841858,-0.0700000002980232
7.790454168359706,-0.0805199965834617,-0.9925919771194458,-0.0849120020866394,0.0700000002980232,0.4900000095367431,0.0175000000745058
7.8106891142515495,-0.0819839984178543,-0.9916160106658936,-0.0863759964704513,0.1050000041723251,0.2800000011920929,-0.0175000000745058
7.830924060143393,-0.0836919993162155,-0.9928359985351562,-0.0861319974064827,0.1400000005960464,0.1400000005960464,-0.1225000023841857
7.851159006035236,-0.0832040011882782,-0.9923479557037354,-0.08661999553442,0.2100000083446502,-0.0874999985098838,-0.2100000083446502
7.87139395192708,-0.0832040011882782,-0.9935680031776428,-0.0871080011129379,0.3149999976158142,-0.2275000065565109,-0.2800000011920929
7.891628897818923,-0.0797879993915557,-0.9918599724769592,-0.0885719954967498,0.3675000071525574,-0.1574999988079071,-0.3675000071525574
7.9118638437107665,-0.0797879993915557,-0.9916160106658936,-0.0875959992408752,0.3149999976158142,-0.0525000020861625,-0.3499999940395355
7.93209878960261,-0.0810080021619796,-0.9925919771194458,-0.0897919982671737,0.4025000035762787,0.1050000041723251,-0.332500010728836
7.952333735494453,-0.0800319984555244,-0.9906399846076964,-0.0878399983048439,0.5425000190734863,0.2800000011920929,-0.2975000143051147
7.972568681386297,-0.0810080021619796,-0.994055986404419,-0.0929640009999275,0.3849999904632568,0.4550000131130218,-0.0700000002980232
7.99280362727814,-0.0836919993162155,-0.9945439696311952,-0.0927200019359588,0.5074999928474426,0.6299999952316284,0.0175000000745058
8.013038573169984,-0.085156001150608,-0.9916160106658936,-0.0895479992032051,0.6474999785423279,0.5950000286102295,0.0350000001490116
8.033273519061828,-0.0878399983048439,-0.9894199967384338,-0.08661999553442,0.5074999928474426,0.3849999904632568,-0.0525000020861625
8.053508464953671,-0.0873520001769065,-0.9894199967384338,-0.0856439992785453,0.2800000011920929,0.2800000011920929,-0.0175000000745058
8.073743410845514,-0.0861319974064827,-0.98990797996521,-0.085156001150608,-0.0350000001490116,-0.0350000001490116,0.1574999988079071
8.093978356737358,-0.085156001150608,-0.9925919771194458,-0.0861319974064827,-0.3149999976158142,-0.1400000005960464,0.2450000047683715
8.114213302629201,-0.0854000002145767,-0.9938119649887084,-0.0890600010752677,-0.3849999904632568,-0.1225000023841857,0.2450000047683715
8.134448248521045,-0.0841799974441528,-0.9911279678344728,-0.085887998342514,-0.2275000065565109,-0.1050000041723251,0.1924999952316284
8.154683194412888,-0.0846679955720901,-0.9935680031776428,-0.0868639945983886,-0.3149999976158142,-0.0874999985098838,0.2275000065565109
8.174918140304731,-0.0861319974064827,-0.9933239817619324,-0.0873520001769065,-0.1050000041723251,0.1400000005960464,0.2275000065565109
8.195153086196575,-0.085887998342514,-0.9921039938926696,-0.0878399983048439,0.0525000020861625,0.1574999988079071,0.2275000065565109
8.215388032088418,-0.0832040011882782,-0.9896639585494996,-0.0836919993162155,-0.2275000065565109,0.2975000143051147,0.2800000011920929
8.235622977980261,-0.085156001150608,-0.9901520013809204,-0.0844239965081214,-0.4375,0.4724999964237213,0.3499999940395355
8.255857923872105,-0.0878399983048439,-0.9916160106658936,-0.08661999553442,-0.5600000023841858,0.4200000166893005,0.2975000143051147
8.276092869763948,-0.0878399983048439,-0.993079960346222,-0.0873520001769065,-0.5249999761581421,0.3149999976158142,0.2975000143051147
8.296327815655792,-0.0873520001769065,-0.9933239817619324,-0.0878399983048439,-0.2800000011920929,0.1924999952316284,0.1924999952316284
8.316562761547635,-0.0849120020866394,-0.9945439696311952,-0.0885719954967498,-0.1050000041723251,0.1400000005960464,0.1050000041723251
8.336797707439478,-0.085156001150608,-0.9928359985351562,-0.0885719954967498,-0.0175000000745058,0.2450000047683715,0.1400000005960464
8.357032653331322,-0.0839359983801841,-0.990395963191986,-0.0897919982671737,-0.0350000001490116,0.332500010728836,0.1400000005960464
8.377267599223165,-0.0844239965081214,-0.9906399846076964,-0.0888160020112991,-0.0350000001490116,0.4200000166893005,0.1050000041723251
8.397502545115008,-0.0834480002522468,-0.9889319539070128,-0.0883279964327812,-0.0700000002980232,0.5774999856948853,0.1400000005960464
8.417737491006852,-0.0849120020866394,-0.9913719892501832,-0.0910120010375976,-0.1050000041723251,0.612500011920929,0.1924999952316284
8.437972436898695,-0.0863759964704513,-0.9921039938926696,-0.0897919982671737,0.0874999985098838,0.5074999928474426,0.1400000005960464
8.458207382790539,-0.0873520001769065,-0.9918599724769592,-0.0893040001392364,0.1225000023841857,0.5074999928474426,0.1050000041723251
8.478442328682382,-0.0885719954967498,-0.9923479557037354,-0.0907679945230484,0.1400000005960464,0.4550000131130218,0.0525000020861625
8.498677274574225,-0.0871080011129379,-0.9921039938926696,-0.0905239954590797,0.1924999952316284,0.4724999964237213,0.0525000020861625
8.518912220466069,-0.0868639945983886,-0.990395963191986,-0.0890600010752677,0.1924999952316284,0.3675000071525574,-0.0175000000745058
8.539147166357912,-0.0861319974064827,-0.9933239817619324,-0.0924759954214096,-0.0175000000745058,0.5950000286102295,0.0350000001490116
8.559382112249756,-0.0885719954967498,-0.990884006023407,-0.0936959981918335,-0.2100000083446502,0.5425000190734863,0.1574999988079071
8.579617058141599,-0.0888160020112991,-0.9894199967384338,-0.0929640009999275,-0.1225000023841857,0.5774999856948853,0.1924999952316284
8.599852004033442,-0.0878399983048439,-0.9877119660377502,-0.0922319963574409,-0.1749999970197677,0.6474999785423279,0.262499988079071
8.620086949925286,-0.0868639945983886,-0.9923479557037354,-0.0924759954214096,-0.4724999964237213,0.8050000071525574,0.2450000047683715
8.640321895817129,-0.0873520001769065,-0.9925919771194458,-0.0917439982295036,-0.4025000035762787,0.8924999833106995,0.1400000005960464
8.660556841708972,-0.0905239954590797,-0.9916160106658936,-0.0924759954214096,-0.262499988079071,0.9100000262260436,0.0525000020861625
8.680791787600816,-0.0907679945230484,-0.9913719892501832,-0.0919879972934722,-0.1400000005960464,0.8400000333786011,-0.0525000020861625
8.70102673349266,-0.0907679945230484,-0.9925919771194458,-0.0907679945230484,-0.2100000083446502,0.8224999904632568,-0.0350000001490116
8.721261679384503,-0.0888160020112991,-0.9925919771194458,-0.0897919982671737,-0.1050000041723251,0.7350000143051147,-0.0874999985098838
8.741496625276346,-0.0890600010752677,-0.9921039938926696,-0.0912560001015663,-0.0350000001490116,0.6650000214576721,-0.1225000023841857
8.76173157116819,-0.0905239954590797,-0.9911279678344728,-0.0917439982295036,0.0874999985098838,0.5249999761581421,-0.1574999988079071
8.781966517060033,-0.0895479992032051,-0.9889319539070128,-0.0910120010375976,0.1749999970197677,0.5425000190734863,-0.1400000005960464
8.802201462951876,-0.0883279964327812,-0.9906399846076964,-0.0895479992032051,-0.0175000000745058,0.5600000023841858,-0.0700000002980232
8.82243640884372,-0.0883279964327812,-0.98990797996521,-0.0878399983048439,-0.0874999985098838,0.6299999952316284,-0.0700000002980232
8.842671354735563,-0.0910120010375976,-0.9901520013809204,-0.0922319963574409,-0.0175000000745058,0.7875000238418579,-0.0874999985098838
8.862906300627406,-0.0893040001392364,-0.9906399846076964,-0.090279996395111,-0.1749999970197677,0.5600000023841858,0.0874999985098838
8.88314124651925,-0.0885719954967498,-0.9923479557037354,-0.0929640009999275,-0.2450000047683715,0.5249999761581421,0.1050000041723251
8.903376192411093,-0.0888160020112991,-0.9911279678344728,-0.0907679945230484,-0.0525000020861625,0.4900000095367431,0.0525000020861625
8.923611138302936,-0.0900359973311424,-0.9911279678344728,-0.090279996395111,-0.0874999985098838,0.3675000071525574,0.0350000001490116
8.94384608419478,-0.0893040001392364,-0.9916160106658936,-0.0914999991655349,-0.1400000005960464,0.3675000071525574,0.0175000000745058
8.964081030086623,-0.0888160020112991,-0.990884006023407,-0.0910120010375976,0.1050000041723251,0.3499999940395355,-0.0525000020861625
8.984315975978467,-0.0871080011129379,-0.9906399846076964,-0.0922319963574409,0.1749999970197677,0.3849999904632568,-0.1050000041723251
9.00455092187031,-0.0880839973688125,-0.9894199967384338,-0.0914999991655349,0.2975000143051147,0.3499999940395355,-0.1749999970197677
9.024785867762153,-0.0890600010752677,-0.9896639585494996,-0.090279996395111,0.2975000143051147,0.3149999976158142,-0.1924999952316284
9.045020813653997,-0.0895479992032051,-0.9889319539070128,-0.0905239954590797,0.2975000143051147,0.3149999976158142,-0.1225000023841857
9.06525575954584,-0.0875959992408752,-0.987223982810974,-0.0885719954967498,0.332500010728836,0.262499988079071,-0.0874999985098838
9.085490705437683,-0.0883279964327812,-0.9896639585494996,-0.0917439982295036,0.1050000041723251,0.2450000047683715,-0.0350000001490116
9.105725651329527,-0.0890600010752677,-0.9911279678344728,-0.0927200019359588,-0.0350000001490116,0.1749999970197677,0.0350000001490116
9.12596059722137,-0.0888160020112991,-0.9889319539070128,-0.0917439982295036,-0.0700000002980232,-0.0175000000745058,-0.0175000000745058
9.146195543113214,-0.0905239954590797,-0.9916160106658936,-0.0941839963197708,-0.2975000143051147,-0.1400000005960464,0.0874999985098838
9.166430489005057,-0.0912560001015663,-0.9935680031776428,-0.0956479981541633,-0.2275000065565109,-0.2800000011920929,0.0874999985098838
9.1866654348969,-0.0890600010752677,-0.9894199967384338,-0.0929640009999275,-0.1749999970197677,-0.332500010728836,-0.0175000000745058
9.206900380788744,-0.0868639945983886,-0.9874680042266846,-0.0914999991655349,-0.2100000083446502,-0.2100000083446502,-0.0350000001490116
9.227135326680587,-0.0824719965457916,-0.9891759753227234,-0.0919879972934722,-0.3849999904632568,-0.0175000000745058,0.0700000002980232
9.24737027257243,-0.0836919993162155,-0.9916160106658936,-0.0910120010375976,-0.5950000286102295,-0.0525000020861625,0.1924999952316284
9.267605218464274,-0.0856439992785453,-0.990395963191986,-0.0917439982295036,-0.6650000214576721,0.0350000001490116,0.2100000083446502
9.287840164356117,-0.0861319974064827,-0.9913719892501832,-0.0941839963197708,-0.612500011920929,0.1050000041723251,0.262499988079071
9.30807511024796,-0.0861319974064827,-0.9918599724769592,-0.0939399972558021,-0.5249999761581421,0.2450000047683715,0.1749999970197677
9.328310056139804,-0.0854000002145767,-0.994055986404419,-0.0941839963197708,-0.4900000095367431,0.3149999976158142,0.1924999952316284
9.348545002031647,-0.08661999553442,-0.9913719892501832,-0.0941839963197708,-0.4200000166893005,0.4375,0.1924999952316284
9.36877994792349,-0.08661999553442,-0.9884439706802368,-0.0929640009999275,-0.4025000035762787,0.4724999964237213,0.1749999970197677
9.389014893815334,-0.0849120020866394,-0.9879559874534608,-0.0919879972934722,-0.5425000190734863,0.4724999964237213,0.1749999970197677
9.409249839707178,-0.0875959992408752,-0.9906399846076964,-0.0932080000638961,-0.7350000143051147,0.4900000095367431,0.2450000047683715
9.429484785599021,-0.0885719954967498,-0.9925919771194458,-0.0941839963197708,-0.699999988079071,0.3149999976158142,0.2975000143051147
9.449719731490864,-0.0897919982671737,-0.98990797996521,-0.0949160009622573,-0.5425000190734863,0.2100000083446502,0.2800000011920929
9.469954677382708,-0.0875959992408752,-0.9894199967384338,-0.095160000026226,-0.4550000131130218,0.1225000023841857,0.262499988079071
9.490189623274551,-0.0861319974064827,-0.9901520013809204,-0.0954039990901947,-0.5249999761581421,0.1400000005960464,0.3675000071525574
9.510424569166394,-0.0873520001769065,-0.9901520013809204,-0.0956479981541633,-0.4900000095367431,0.1400000005960464,0.332500010728836
9.530659515058238,-0.0885719954967498,-0.9882000088691713,-0.0949160009622573,-0.5249999761581421,0.2100000083446502,0.332500010728836
9.550894460950081,-0.0888160020112991,-0.9894199967384338,-0.095160000026226,-0.5774999856948853,0.1400000005960464,0.3675000071525574
9.571129406841925,-0.0880839973688125,-0.9901520013809204,-0.0961359962821006,-0.5950000286102295,0.1574999988079071,0.3675000071525574
9.591364352733768,-0.0893040001392364,-0.9906399846076964,-0.0973559990525245,-0.5600000023841858,0.2450000047683715,0.3675000071525574
9.611599298625611,-0.090279996395111,-0.9916160106658936,-0.0988200008869171,-0.4724999964237213,0.2275000065565109,0.3849999904632568
9.631834244517455,-0.0897919982671737,-0.9913719892501832,-0.1000399962067604,-0.4550000131130218,0.262499988079071,0.3499999940395355
9.652069190409298,-0.0912560001015663,-0.9918599724769592,-0.1000399962067604,-0.4200000166893005,0.2450000047683715,0.332500010728836
9.672304136301141,-0.0917439982295036,-0.9923479557037354,-0.1007720008492469,-0.4375,0.4375,0.2975000143051147
9.692539082192985,-0.0907679945230484,-0.990395963191986,-0.0993079990148544,-0.2450000047683715,0.5425000190734863,0.2100000083446502
9.712774028084828,-0.0914999991655349,-0.9916160106658936,-0.1010159999132156,-0.2275000065565109,0.6650000214576721,0.2100000083446502
9.733008973976672,-0.0941839963197708,-0.9938119649887084,-0.1076039969921112,0.1749999970197677,0.962499976158142,-0.1400000005960464
9.753243919868515,-0.0966240018606185,-0.9918599724769592,-0.1071159988641738,0.3849999904632568,1.0499999523162842,-0.1225000023841857
9.773478865760358,-0.0963799953460693,-0.9891759753227234,-0.1093119978904724,0.5249999761581421,1.1549999713897705,-0.0175000000745058
9.793713811652202,-0.095891997218132,-0.9869799613952636,-0.1066280007362365,0.4550000131130218,1.1725000143051147,0.0350000001490116
9.813948757544045,-0.0971119999885559,-0.9886879920959472,-0.109555996954441,0.0874999985098838,1.347499966621399,0.0175000000745058
9.834183703435889,-0.0978439971804618,-0.9879559874534608,-0.1112639978528022,0.1400000005960464,1.5575000047683716,-0.0700000002980232
9.854418649327732,-0.0975999981164932,-0.9847840070724488,-0.1090679988265037,0.1400000005960464,1.5399999618530271,-0.0525000020861625
9.874653595219575,-0.099551998078823,-0.9813680052757264,-0.105163998901844,-0.1924999952316284,1.3650000095367432,0.0175000000745058
9.894888541111419,-0.0975999981164932,-0.9806360006332396,-0.1012599989771843,-0.6825000047683716,1.1024999618530271,0.1749999970197677
9.915123487003262,-0.0939399972558021,-0.9803919792175292,-0.0973559990525245,-1.2424999475479126,0.8924999833106995,0.4375
9.935358432895105,-0.0946719944477081,-0.9855159521102904,-0.0988200008869171,-1.7324999570846558,0.8575000166893005,0.6825000047683716
9.955593378786949,-0.0941839963197708,-0.98990797996521,-0.0988200008869171,-1.8025000095367432,0.7875000238418579,0.7350000143051147
9.975828324678792,-0.0968680009245872,-0.9945439696311952,-0.1019919961690902,-1.5575000047683716,0.7175000309944153,0.5950000286102295
9.996063270570636,-0.0954039990901947,-0.995519995689392,-0.1024799942970275,-1.0499999523162842,0.5774999856948853,0.3849999904632568
10.016298216462479,-0.0961359962821006,-0.994055986404419,-0.1036999970674514,-0.4724999964237213,0.4025000035762787,0.1400000005960464
10.036533162354322,-0.0961359962821006,-0.9874680042266846,-0.1005280017852783,0.3149999976158142,0.2100000083446502,-0.0350000001490116
10.056768108246166,-0.0956479981541633,-0.987223982810974,-0.1015039980411529,0.2800000011920929,0.1225000023841857,0.0525000020861625
10.07700305413801,-0.0961359962821006,-0.9886879920959472,-0.1039439961314201,0.2450000047683715,0.2100000083446502,0.1050000041723251
10.097238000029853,-0.0968680009245872,-0.987223982810974,-0.105163998901844,0.262499988079071,0.2100000083446502,0.0175000000745058
10.117472945921696,-0.0973559990525245,-0.9884439706802368,-0.1080919951200485,0.1749999970197677,0.2100000083446502,-0.0525000020861625
10.13770789181354,-0.0966240018606185,-0.987223982810974,-0.10589599609375,0.2450000047683715,0.0874999985098838,-0.0700000002980232
10.157942837705383,-0.0932080000638961,-0.9879559874534608,-0.1034559980034828,0.1574999988079071,-0.1050000041723251,0.0175000000745058
10.178177783597226,-0.0939399972558021,-0.9864919781684875,-0.1049199998378753,0.0874999985098838,-0.1225000023841857,0.0700000002980232
10.19841272948907,-0.0956479981541633,-0.9896639585494996,-0.1073599979281425,-0.0525000020861625,-0.1225000023841857,0.0700000002980232
10.218647675380913,-0.0944279953837394,-0.9901520013809204,-0.1071159988641738,0.1400000005960464,-0.2275000065565109,-0.0350000001490116
10.238882621272756,-0.0924759954214096,-0.9882000088691713,-0.1036999970674514,0.2800000011920929,-0.1924999952316284,-0.1749999970197677
10.2591175671646,-0.0910120010375976,-0.9877119660377502,-0.1019919961690902,0.2275000065565109,-0.0700000002980232,-0.1574999988079071
10.279352513056443,-0.0919879972934722,-0.9896639585494996,-0.1017479971051216,0.1924999952316284,0.0525000020861625,-0.0874999985098838
10.299587458948286,-0.0919879972934722,-0.9884439706802368,-0.100283995270729,0.2450000047683715,-0.1225000023841857,-0.1400000005960464
10.31982240484013,-0.0929640009999275,-0.9906399846076964,-0.1015039980411529,0.1924999952316284,-0.2450000047683715,-0.0874999985098838
10.340057350731973,-0.0941839963197708,-0.9921039938926696,-0.1015039980411529,0.1574999988079071,-0.4025000035762787,-0.0700000002980232
10.360292296623816,-0.0934519991278648,-0.98990797996521,-0.1010159999132156,0.3149999976158142,-0.5425000190734863,-0.1225000023841857
10.38052724251566,-0.0961359962821006,-0.9884439706802368,-0.105163998901844,0.1574999988079071,-0.612500011920929,-0.0525000020861625
10.400762188407503,-0.095160000026226,-0.9889319539070128,-0.104432001709938,0.0525000020861625,-0.8050000071525574,-0.1050000041723251
10.420997134299347,-0.0944279953837394,-0.9877119660377502,-0.1029679998755455,0.0700000002980232,-0.9100000262260436,-0.0700000002980232
10.44123208019119,-0.0944279953837394,-0.9879559874534608,-0.1054079979658126,-0.0874999985098838,-0.962499976158142,0.0874999985098838
10.461467026083033,-0.0944279953837394,-0.9869799613952636,-0.1066280007362365,-0.1749999970197677,-1.0499999523162842,0.1749999970197677
10.481701971974877,-0.095891997218132,-0.9882000088691713,-0.1083360016345977,-0.3499999940395355,-1.0850000381469729,0.262499988079071
10.50193691786672,-0.0946719944477081,-0.9874680042266846,-0.1061399951577186,-0.5425000190734863,-1.0325000286102295,0.3149999976158142
10.522171863758564,-0.0961359962821006,-0.990395963191986,-0.1073599979281425,-0.7699999809265137,-0.875,0.3675000071525574
10.542406809650407,-0.0983319953083992,-0.9896639585494996,-0.1083360016345977,-0.875,-0.9449999928474426,0.4550000131130218
10.56264175554225,-0.0997959971427917,-0.985759973526001,-0.1119959950447082,-0.9275000095367432,-1.0674999952316284,0.6474999785423279
10.582876701434094,-0.0973559990525245,-0.9916160106658936,-0.1119959950447082,-0.9800000190734864,-1.1200000047683716,0.8924999833106995
10.603111647325937,-0.1061399951577186,-0.9935680031776428,-0.1178519949316978,-0.5774999856948853,-0.962499976158142,0.7350000143051147
10.62334659321778,-0.1024799942970275,-0.9916160106658936,-0.1137039959430694,0.1924999952316284,-1.4350000619888306,0.4200000166893005
10.643581539109624,-0.1029679998755455,-0.9884439706802368,-0.1149239987134933,0.612500011920929,-1.6100000143051147,0.1400000005960464
10.663816485001467,-0.1000399962067604,-0.9882000088691713,-0.1112639978528022,0.6650000214576721,-1.8550000190734863,0.1574999988079071
10.68405143089331,-0.0993079990148544,-0.9918599724769592,-0.1146799996495246,0.5774999856948853,-1.8025000095367432,0.1225000023841857
10.704286376785154,-0.0968680009245872,-0.9901520013809204,-0.1146799996495246,0.9275000095367432,-1.75,-0.1225000023841857
10.724521322676997,-0.0912560001015663,-0.985759973526001,-0.1110199987888336,1.1200000047683716,-1.6974999904632568,-0.2975000143051147
10.74475626856884,-0.0905239954590797,-0.9847840070724488,-0.1080919951200485,0.8924999833106995,-1.4874999523162842,-0.2275000065565109
10.764991214460684,-0.0936959981918335,-0.986735999584198,-0.1066280007362365,0.699999988079071,-1.3825000524520874,-0.0700000002980232
10.785226160352527,-0.0929640009999275,-0.9879559874534608,-0.1039439961314201,0.6825000047683716,-1.5049999952316284,-0.0525000020861625
10.80546110624437,-0.0939399972558021,-0.9862479567527772,-0.1046760007739067,0.5950000286102295,-1.5750000476837158,-0.1050000041723251
10.825696052136214,-0.0949160009622573,-0.9891759753227234,-0.1027240008115768,0.5249999761581421,-1.4524999856948853,-0.1050000041723251
10.845930998028058,-0.0949160009622573,-0.9869799613952636,-0.1015039980411529,0.5074999928474426,-1.347499966621399,-0.1225000023841857
10.866165943919901,-0.0929640009999275,-0.9884439706802368,-0.1010159999132156,0.4200000166893005,-1.277500033378601,-0.0874999985098838
10.886400889811744,-0.0917439982295036,-0.9877119660377502,-0.1010159999132156,0.4375,-1.0499999523162842,-0.1574999988079071
10.906635835703588,-0.0900359973311424,-0.9855159521102904,-0.095160000026226,0.3849999904632568,-0.4025000035762787,-0.1574999988079071
10.926870781595431,-0.0905239954590797,-0.9882000088691713,-0.0978439971804618,0.2450000047683715,-0.0175000000745058,-0.0874999985098838
10.947105727487275,-0.0963799953460693,-0.98990797996521,-0.1007720008492469,0.3849999904632568,0.7175000309944153,-0.0525000020861625
10.967340673379118,-0.0966240018606185,-0.985759973526001,-0.0975999981164932,0.5600000023841858,0.7699999809265137,-0.2275000065565109
10.987575619270961,-0.0975999981164932,-0.986735999584198,-0.0997959971427917,0.3675000071525574,0.962499976158142,-0.2275000065565109
11.007810565162805,-0.1005280017852783,-0.990395963191986,-0.099551998078823,0.3149999976158142,0.9800000190734864,-0.1225000023841857
11.028045511054648,-0.1012599989771843,-0.9879559874534608,-0.100283995270729,0.4900000095367431,0.962499976158142,-0.1749999970197677
11.048280456946491,-0.1022359952330589,-0.986735999584198,-0.1017479971051216,0.612500011920929,0.8050000071525574,-0.1749999970197677
11.068515402838335,-0.1029679998755455,-0.9877119660377502,-0.1019919961690902,0.5950000286102295,0.6299999952316284,-0.1225000023841857
11.088750348730178,-0.0988200008869171,-0.9874680042266846,-0.1015039980411529,0.5950000286102295,0.4375,-0.0700000002980232
11.108985294622022,-0.0961359962821006,-0.9869799613952636,-0.1046760007739067,0.3675000071525574,0.4724999964237213,0.0350000001490116
11.129220240513865,-0.0949160009622573,-0.9891759753227234,-0.1056519970297813,0.1924999952316284,0.6825000047683716,0.1749999970197677
11.149455186405708,-0.0924759954214096,-0.9896639585494996,-0.1078479960560798,0.0700000002980232,0.9449999928474426,0.2275000065565109
11.169690132297552,-0.0946719944477081,-0.9921039938926696,-0.1124840006232261,0.0175000000745058,1.2424999475479126,0.1574999988079071
11.189925078189395,-0.0973559990525245,-0.9916160106658936,-0.1141919940710067,0.1574999988079071,1.3650000095367432,0.1050000041723251
11.210160024081238,-0.099551998078823,-0.9852719902992249,-0.1119959950447082,0.4025000035762787,1.1725000143051147,0.0350000001490116
11.230394969973082,-0.1034559980034828,-0.9835639595985411,-0.1105320006608963,0.2450000047683715,0.8224999904632568,0.1924999952316284
11.250629915864925,-0.1054079979658126,-0.9850279688835144,-0.1122400015592575,-0.1924999952316284,0.5950000286102295,0.2975000143051147
11.270864861756769,-0.1097999960184097,-0.9945439696311952,-0.1139479950070381,-0.3149999976158142,-0.0700000002980232,0.3149999976158142
11.291099807648612,-0.1110199987888336,-0.9869799613952636,-0.1112639978528022,0.1050000041723251,-0.8400000333786011,0.1749999970197677
11.311334753540455,-0.1090679988265037,-0.9833199977874756,-0.1097999960184097,0.0874999985098838,-1.5750000476837158,0.1400000005960464
11.331569699432299,-0.1073599979281425,-0.986735999584198,-0.1088239997625351,-0.0700000002980232,-2.117500066757202,0.2275000065565109
11.351804645324142,-0.1049199998378753,-0.9886879920959472,-0.1034559980034828,-0.0700000002980232,-2.5899999141693115,0.2800000011920929
11.372039591215986,-0.1049199998378753,-0.9884439706802368,-0.105163998901844,0.0525000020861625,-3.0450000762939453,0.3849999904632568
11.392274537107829,-0.1029679998755455,-0.9928359985351562,-0.1046760007739067,0.1749999970197677,-3.377500057220459,0.4025000035762787
11.412509482999672,-0.1015039980411529,-0.9923479557037354,-0.1027240008115768,0.5425000190734863,-3.552500009536743,0.2100000083446502
11.432744428891516,-0.0990639999508857,-0.9943000078201294,-0.1054079979658126,0.7524999976158142,-3.430000066757202,0.1400000005960464
11.452979374783359,-0.0973559990525245,-0.9911279678344728,-0.1056519970297813,1.0149999856948853,-3.0799999237060547,0.0874999985098838
11.473214320675202,-0.095160000026226,-0.9877119660377502,-0.1024799942970275,1.190000057220459,-2.8350000381469727,0.0175000000745058
11.493449266567046,-0.0914999991655349,-0.9852719902992249,-0.0988200008869171,0.6474999785423279,-2.117500066757202,0.2275000065565109
11.51368421245889,-0.0912560001015663,-0.9860039949417114,-0.0993079990148544,0.4550000131130218,-1.715000033378601,0.332500010728836
11.533919158350733,-0.0917439982295036,-0.9886879920959472,-0.0985759943723678,0.2975000143051147,-1.277500033378601,0.3849999904632568
11.554154104242576,-0.0895479992032051,-0.985759973526001,-0.0966240018606185,0.262499988079071,-0.7875000238418579,0.4200000166893005
11.57438905013442,-0.0885719954967498,-0.9894199967384338,-0.0971119999885559,0.0700000002980232,-0.2275000065565109,0.4550000131130218
11.594623996026263,-0.0934519991278648,-0.9889319539070128,-0.0973559990525245,0.262499988079071,0.8575000166893005,0.2100000083446502
11.614858941918106,-0.0954039990901947,-0.9886879920959472,-0.0973559990525245,0.2450000047683715,1.2424999475479126,0.2450000047683715
11.63509388780995,-0.0956479981541633,-0.98990797996521,-0.0968680009245872,0.1924999952316284,1.6100000143051147,0.332500010728836
11.655328833701793,-0.0934519991278648,-0.9891759753227234,-0.0975999981164932,0.4550000131130218,1.8725000619888303,0.262499988079071
11.675563779593636,-0.095891997218132,-0.9869799613952636,-0.0961359962821006,0.5249999761581421,2.117500066757202,0.262499988079071
11.69579872548548,-0.0980879962444305,-0.9886879920959472,-0.0973559990525245,0.3675000071525574,2.362499952316284,0.2800000011920929
11.716033671377323,-0.1005280017852783,-0.9852719902992249,-0.0966240018606185,0.2275000065565109,2.502500057220459,0.2275000065565109
11.736268617269166,-0.1036999970674514,-0.9850279688835144,-0.0978439971804618,0.0350000001490116,2.572499990463257,0.2450000047683715
11.75650356316101,-0.10589599609375,-0.9847840070724488,-0.0985759943723678,-0.1574999988079071,2.414999961853028,0.3499999940395355
11.776738509052853,-0.1046760007739067,-0.9860039949417114,-0.099551998078823,-0.332500010728836,2.240000009536743,0.4550000131130218
11.796973454944697,-0.1027240008115768,-0.9879559874534608,-0.1007720008492469,-0.4550000131130218,2.0999999046325684,0.5600000023841858
11.81720840083654,-0.1022359952330589,-0.9879559874534608,-0.1019919961690902,-0.5774999856948853,2.0824999809265137,0.5950000286102295
11.837443346728383,-0.10589599609375,-0.9860039949417114,-0.1012599989771843,-0.4900000095367431,1.9424999952316284,0.6299999952316284
11.857678292620227,-0.1071159988641738,-0.9855159521102904,-0.100283995270729,-0.6474999785423279,1.7675000429153442,0.7524999976158142
11.87791323851207,-0.1073599979281425,-0.9877119660377502,-0.1005280017852783,-0.8224999904632568,1.4700000286102295,0.9100000262260436
11.898148184403913,-0.1080919951200485,-0.9894199967384338,-0.1022359952330589,-0.9100000262260436,1.1375000476837158,0.9100000262260436
11.918383130295757,-0.1097999960184097,-0.9882000088691713,-0.1027240008115768,-0.8924999833106995,0.9449999928474426,0.8050000071525574
11.9386180761876,-0.1085800006985664,-0.9864919781684875,-0.1039439961314201,-0.9800000190734864,0.6650000214576721,0.7350000143051147
11.958853022079444,-0.1085800006985664,-0.9869799613952636,-0.1039439961314201,-1.0325000286102295,0.4375,0.7875000238418579
11.979087967971287,-0.1085800006985664,-0.9838079810142516,-0.1041879951953888,-1.0674999952316284,0.332500010728836,0.8924999833106995
11.99932291386313,-0.1071159988641738,-0.9847840070724488,-0.1061399951577186,-1.2949999570846558,0.2275000065565109,0.962499976158142
12.019557859754974,-0.1076039969921112,-0.987223982810974,-0.1061399951577186,-1.4874999523162842,0.0525000020861625,1.1200000047683716
12.039792805646817,-0.1083360016345977,-0.9889319539070128,-0.10589599609375,-1.627500057220459,-0.0350000001490116,1.1375000476837158
12.06002775153866,-0.1090679988265037,-0.9874680042266846,-0.1071159988641738,-1.5924999713897705,-0.1400000005960464,1.225000023841858
12.080262697430504,-0.109555996954441,-0.986735999584198,-0.1083360016345977,-1.7324999570846558,-0.1574999988079071,1.2599999904632568
12.100497643322347,-0.1080919951200485,-0.9860039949417114,-0.10589599609375,-1.6974999904632568,-0.0525000020861625,1.225000023841858
12.12073258921419,-0.1088239997625351,-0.9845399856567384,-0.1063839942216873,-1.5924999713897705,-0.0525000020861625,1.2074999809265137
12.140967535106034,-0.1097999960184097,-0.9862479567527772,-0.10589599609375,-1.5750000476837158,-0.1749999970197677,1.225000023841858
12.161202480997877,-0.1080919951200485,-0.986735999584198,-0.1034559980034828,-1.4350000619888306,-0.2100000083446502,1.190000057220459
12.18143742688972,-0.1056519970297813,-0.9862479567527772,-0.1032119989395141,-1.4350000619888306,-0.0700000002980232,1.225000023841858
12.201672372781564,-0.1046760007739067,-0.9860039949417114,-0.1024799942970275,-1.347499966621399,0.0700000002980232,1.190000057220459
12.221907318673408,-0.1046760007739067,-0.9864919781684875,-0.1054079979658126,-1.3125,0.3849999904632568,1.1024999618530271
12.242142264565251,-0.1071159988641738,-0.9874680042266846,-0.1063839942216873,-1.225000023841858,0.612500011920929,0.9975000023841858
12.262377210457094,-0.1097999960184097,-0.9852719902992249,-0.1085800006985664,-1.0674999952316284,0.7524999976158142,0.9975000023841858
12.282612156348938,-0.1129719987511634,-0.986735999584198,-0.1080919951200485,-0.9975000023841858,0.7524999976158142,1.0149999856948853
12.302847102240781,-0.1117519959807396,-0.9855159521102904,-0.10589599609375,-0.9449999928474426,0.7524999976158142,0.875
12.323082048132624,-0.1083360016345977,-0.9838079810142516,-0.104432001709938,-0.875,0.7875000238418579,0.7524999976158142
12.343316994024468,-0.1088239997625351,-0.9813680052757264,-0.1005280017852783,-1.1549999713897705,0.7875000238418579,0.962499976158142
12.363551939916311,-0.1117519959807396,-0.9862479567527772,-0.1029679998755455,-1.5049999952316284,0.6650000214576721,1.1725000143051147
12.383786885808155,-0.1100439950823783,-0.9896639585494996,-0.1036999970674514,-1.627500057220459,0.5600000023841858,1.277500033378601
12.404021831699998,-0.1073599979281425,-0.9860039949417114,-0.099551998078823,-1.3300000429153442,0.4724999964237213,1.2424999475479126
12.424256777591841,-0.1041879951953888,-0.97843998670578,-0.0936959981918335,-1.3300000429153442,0.3849999904632568,1.225000023841858
12.444491723483685,-0.1036999970674514,-0.9764879941940308,-0.0914999991655349,-1.7675000429153442,0.5774999856948853,1.347499966621399
12.464726669375528,-0.105163998901844,-0.9769759774208068,-0.0910120010375976,-2.1875,0.612500011920929,1.5399999618530271
12.484961615267371,-0.110287994146347,-0.9786840081214904,-0.0941839963197708,-2.5899999141693115,0.4900000095367431,1.627500057220459
12.505196561159215,-0.1161440014839172,-0.9799039959907532,-0.099551998078823,-2.870000123977661,0.1400000005960464,1.8899999856948853
12.525431507051058,-0.1185839995741844,-0.9813680052757264,-0.1029679998755455,-2.992500066757202,-0.332500010728836,1.995000004768372
12.545666452942902,-0.119559995830059,-0.9852719902992249,-0.1088239997625351,-3.009999990463257,-0.7175000309944153,2.012500047683716
12.565901398834745,-0.1212679967284202,-0.987223982810974,-0.1112639978528022,-2.747499942779541,-1.0499999523162842,1.9774999618530276
12.586136344726588,-0.1224879994988441,-0.9894199967384338,-0.1112639978528022,-2.5374999046325684,-1.5924999713897705,1.837499976158142
12.606371290618432,-0.1193159967660904,-0.987223982810974,-0.1090679988265037,-2.4674999713897705,-2.047499895095825,1.6449999809265137
12.626606236510275,-0.1180959939956665,-0.9847840070724488,-0.1107759997248649,-2.5899999141693115,-2.2049999237060547,1.5399999618530271
12.646841182402119,-0.1124840006232261,-0.9781959652900696,-0.1100439950823783,-2.694999933242798,-2.432500123977661,1.4175000190734863
12.667076128293962,-0.1134599968791008,-0.97599995136261,-0.1024799942970275,-3.220000028610229,-2.747499942779541,1.399999976158142
12.687311074185805,-0.1166319996118545,-0.9706319570541382,-0.0971119999885559,-3.430000066757202,-2.9749999046325684,1.3825000524520874
12.707546020077649,-0.119559995830059,-0.9689239859580994,-0.0944279953837394,-4.025000095367432,-3.307500123977661,1.2949999570846558
12.727780965969492,-0.1200480014085769,-0.9694119691848756,-0.0949160009622573,-5.057499885559082,-3.849999904632568,1.3825000524520874
12.748015911861335,-0.1249279975891113,-0.9757559895515442,-0.0985759943723678,-6.002500057220459,-4.777500152587891,1.4874999523162842
12.768250857753179,-0.1293199956417083,-0.9772199988365172,-0.0988200008869171,-6.28249979019165,-5.914999961853027,1.2074999809265137
12.788485803645022,-0.1298079937696457,-0.9730719923973083,-0.1017479971051216,-6.387499809265137,-7.192500114440918,0.9275000095367432
12.808720749536866,-0.1261480003595352,-0.9725840091705322,-0.1105320006608963,-6.457499980926514,-8.382499694824219,0.8400000333786011
12.828955695428709,-0.1239520013332367,-0.9706319570541382,-0.1100439950823783,-6.335000038146973,-9.607500076293944,0.6825000047683716
12.849190641320552,-0.1229759976267814,-0.972827970981598,-0.1032119989395141,-6.335000038146973,-10.9375,0.1050000041723251
12.869425587212396,-0.1183400005102157,-0.9764879941940308,-0.1017479971051216,-6.264999866485596,-12.057499885559082,-0.6825000047683716
12.889660533104239,-0.1076039969921112,-0.9757559895515442,-0.0973559990525245,-5.827499866485596,-12.8100004196167,-1.2599999904632568
12.909895478996082,-0.0963799953460693,-0.9757559895515442,-0.0917439982295036,-5.670000076293945,-13.05500030517578,-1.4175000190734863
12.930130424887926,-0.0846679955720901,-0.9667279720306396,-0.0846679955720901,-5.179999828338623,-12.827500343322754,-1.9075000286102293
12.95036537077977,-0.0839359983801841,-0.9555040001869202,-0.0810080021619796,-4.795000076293945,-12.057499885559082,-2.345000028610229
12.970600316671613,-0.0805199965834617,-0.9550159573554992,-0.0734440013766288,-4.8125,-11.112500190734863,-2.2225000858306885
12.990835262563456,-0.0829599946737289,-0.9637999534606934,-0.0692960023880004,-5.25,-10.324999809265137,-1.225000023841858
13.0110702084553,-0.0868639945983886,-0.961847960948944,-0.0597799979150295,-5.302500247955322,-10.02750015258789,-0.7175000309944153
13.031305154347143,-0.0907679945230484,-0.9637999534606934,-0.0600240007042884,-5.96750020980835,-10.114999771118164,-0.5600000023841858
13.051540100238986,-0.1005280017852783,-0.9718520045280457,-0.0605119988322258,-6.737500190734863,-10.395000457763672,0.6825000047683716
13.07177504613083,-0.1012599989771843,-0.9652639627456664,-0.0558759979903698,-6.597499847412109,-11.357500076293944,2.327500104904175
13.092009992022673,-0.1005280017852783,-0.9462319612503052,-0.0551439970731735,-6.125,-12.477499961853027,3.307500123977661
13.112244937914516,-0.0910120010375976,-0.9298839569091796,-0.0541680008172988,-5.932499885559082,-13.947500228881836,3.184999942779541
13.13247988380636,-0.0880839973688125,-0.9032880067825316,-0.0558759979903698,-6.037499904632568,-14.542500495910645,3.0625
13.152714829698203,-0.0861319974064827,-0.8984079957008362,-0.0641719996929168,-8.102499961853027,-14.80500030517578,3.972500085830689
13.172949775590046,-0.0890600010752677,-0.8903560042381287,-0.0683199986815452,-9.922499656677246,-14.822500228881836,4.829999923706055
13.19318472148189,-0.0929640009999275,-0.8788880109786987,-0.0690519958734512,-10.727499961853027,-15.574999809265137,5.110000133514404
13.213419667373733,-0.1078479960560798,-0.8705919981002808,-0.0680759996175766,-11.619999885559082,-16.327499389648438,5.670000076293945
13.233654613265577,-0.1105320006608963,-0.8503400087356567,-0.0727119967341423,-11.40999984741211,-16.747499465942383,6.247499942779541
13.25388955915742,-0.0993079990148544,-0.835211992263794,-0.0751519948244094,-11.917500495910645,-17.885000228881836,6.387499809265137
13.274124505049263,-0.1127279996871948,-0.8198399543762207,-0.1105320006608963,-11.30500030517578,-20.020000457763672,4.462500095367432
13.294359450941107,-0.0944279953837394,-0.7976359724998474,-0.1234639957547187,-7.297500133514404,-20.229999542236328,4.53249979019165
13.31459439683295,-0.0729559957981109,-0.742247998714447,-0.1317600011825561,-2.8350000381469727,-21.489999771118164,4.619999885559082
13.334829342724793,-0.0712479948997497,-0.7185800075531006,-0.099551998078823,-2.712500095367432,-27.71999931335449,6.982500076293945
13.355064288616637,-0.0675880014896392,-0.7207759618759155,-0.0885719954967498,-3.674999952316284,-35.4375,9.432499885559082
13.37529923450848,-0.0846679955720901,-0.7197999954223633,-0.1105320006608963,-0.9100000262260436,-40.59999847412109,8.8725004196167
13.395534180400324,-0.0629519969224929,-0.720043957233429,-0.0822279974818229,3.902499914169312,-45.692501068115234,6.982500076293945
13.415769126292167,-0.0490439981222152,-0.7154079675674438,-0.0287919994443655,3.3949999809265137,-51.17000198364258,8.977499961853027
13.43600407218401,-0.0102479998022317,-0.6839320063591003,-0.010491999797523,0.7699999809265137,-55.66749954223633,13.369999885559082
13.456239018075854,0.0295239984989166,-0.6156119704246521,-0.0695400014519691,-3.325000047683716,-52.51750183105469,22.592500686645508
13.476473963967697,0.0151279997080564,-0.6121959686279297,-0.1066280007362365,-16.83500099182129,-45.46500015258789,35.122501373291016
13.49670890985954,-0.0190319996327161,-0.6600199937820435,-0.0788119956851005,-30.15250015258789,-37.36249923706055,44.95750045776367
13.516943855751384,-0.0605119988322258,-0.7368800044059753,-0.0339160002768039,-43.13750076293945,-28.64750099182129,53.375
13.537178801643227,-0.1307840049266815,-0.84716796875,-0.0661239996552467,-56.209999084472656,-21.15749931335449,61.005001068115234
13.55741374753507,-0.1583559960126876,-0.8486319780349731,-0.1068719998002052,-58.15250015258789,-17.639999389648438,62.15999984741211
13.577648693426914,-0.1219999939203262,-0.822767972946167,-0.1334680020809173,-59.56999969482422,-12.6875,61.775001525878906
13.597883639318757,-0.1576239913702011,-0.8249639868736267,-0.1747040003538131,-65.64250183105469,-1.7675000429153442,63.85750198364258
13.6181185852106,-0.2854799926280975,-0.8449719548225403,-0.1978839933872223,-77.22750091552734,1.9424999952316284,72.67749786376953
13.638353531102444,-0.4287079870700836,-0.9381799697875975,-0.2788919806480407,-93.13500213623048,2.625,87.32499694824219
13.658588476994288,-0.5282599925994873,-1.0289479494094849,-0.3225679993629455,-96.63500213623048,-5.617499828338623,99.3125
13.678823422886131,-0.6012159585952759,-1.0106480121612549,-0.3720999956130981,-87.81500244140625,-12.005000114440918,105.12249755859376
13.699058368777974,-0.6707559823989868,-0.8905999660491943,-0.4396879971027374,-87.53500366210938,-15.8725004196167,111.37000274658205
13.719293314669818,-0.6375719904899597,-0.9437919855117798,-0.4716520011425018,-104.80750274658205,-22.732500076293945,120.38249969482422
13.739528260561661,-0.5160599946975708,-1.2412279844284058,-0.4377360045909881,-111.3000030517578,-26.302499771118164,122.29000091552734
13.759763206453504,-0.4633559882640838,-1.2558679580688477,-0.2893840074539184,-90.6500015258789,-29.942501068115234,118.6675033569336
13.779998152345348,-0.3842999935150146,-0.9501360058784484,-0.0161039996892213,-71.73249816894531,-38.622501373291016,117.9499969482422
13.800233098237191,-0.574131965637207,-0.6283000111579895,0.0856439992785453,-71.26000213623047,-33.564998626708984,119.40250396728516
13.820468044129035,-0.5953599810600281,-0.4643319845199585,-0.0927200019359588,-92.2249984741211,-37.22249984741211,128.4324951171875
13.840702990020878,-0.4711639881134033,-0.4074800014495849,-0.297435998916626,-110.26750183105467,-45.04500198364258,138.84500122070312
13.860937935912721,-0.5773040056228638,-0.3418439924716949,-0.5031279921531677,-114.99250030517578,-41.40499877929688,143.46499633789062
13.881172881804565,-0.6492840051651001,-0.1890999972820282,-0.6239079833030701,-111.68499755859376,-14.80500030517578,151.91749572753906
13.901407827696408,-0.7654280066490173,0.1036999970674514,-1.0574959516525269,-89.70500183105469,-3.4124999046325684,159.65249633789062
13.921642773588252,-1.079699993133545,0.5482679605484009,-1.1914520263671875,-50.64500045776367,-19.4424991607666,195.7375030517578
13.941877719480095,-1.3322399854660034,0.1200480014085769,-0.8515599966049194,-90.70249938964844,-18.77750015258789,215.04000854492188
13.962112665371938,-1.5076760053634644,-0.13468798995018,-0.6483079791069031,-86.0999984741211,-13.440000534057615,193.00750732421875
13.982347611263782,-1.6057639122009275,0.753715991973877,-0.7036960124969482,-42.34999847412109,1.3300000429153442,192.44749450683597
14.002582557155625,-1.3166239261627195,0.6092680096626282,-0.9396439790725708,-114.48500061035156,10.02750015258789,209.6499938964844
14.022817503047468,-1.2336640357971191,0.1134599968791008,-1.0516400337219238,-159.75750732421875,22.61000061035156,192.9900054931641
14.043052448939312,-1.113860011100769,0.2559559941291809,-0.9667279720306396,-116.70750427246094,31.79750061035156,161.47250366210938
14.063287394831155,-1.2875880002975464,0.6004840135574341,-1.0494439601898191,-71.81999969482422,43.3650016784668,114.20500183105467
14.083522340722999,-1.1919399499893188,0.6063399910926819,-0.7988559603691101,-36.48749923706055,28.40250015258789,61.25
14.103757286614842,-1.1192280054092407,0.6878359913825989,-0.6807599663734436,-3.150000095367432,32.182498931884766,28.104999542236328
14.123992232506685,-0.7932440042495728,0.6002399921417236,-0.5248439908027649,12.022500038146973,47.31999969482422,11.182499885559082
14.144227178398529,-0.7459079623222351,0.628055989742279,-0.5189880132675171,14.927499771118164,60.68999862670898,-1.5924999713897705
14.164462124290372,-0.6717320084571838,0.5543680191040039,-0.4355399906635284,19.809999465942383,63.03499984741211,-14.489999771118164
14.184697070182215,-0.6060959696769714,0.5028839707374573,-0.4111399948596954,22.872499465942383,71.68000030517578,-17.71000099182129
14.204932016074059,-0.5648599863052368,0.5202080011367798,-0.3808839917182922,20.877500534057617,78.76750183105469,-12.5649995803833
14.225166961965902,-0.6412320137023926,0.5716919898986816,-0.399183988571167,12.039999961853027,79.34500122070312,-6.054999828338623
14.245401907857746,-0.7041839957237244,0.5775479674339294,-0.4601839780807495,3.0799999237060547,68.00499725341797,-0.6474999785423279
14.265636853749589,-0.6275680065155029,0.4755559861660003,-0.4826319813728332,-4.09499979019165,57.75,-2.345000028610229
14.285871799641432,-0.5736439824104309,0.4330999851226806,-0.5714479684829712,-13.212499618530272,52.185001373291016,0.5074999928474426
14.306106745533276,-0.5241119861602783,0.3969880044460296,-0.6029239892959595,-10.5,42.90999984741211,0.699999988079071
14.32634169142512,-0.5394839644432068,0.3767359852790832,-0.681003987789154,-6.352499961853027,36.20750045776367,5.337500095367432
14.346576637316963,-0.5119119882583618,0.3428199887275696,-0.7237039804458618,0.7350000143051147,38.67499923706055,5.284999847412109
14.366811583208806,-0.4923920035362243,0.4428599774837494,-0.7644519805908203,12.914999961853027,51.48500061035156,14.80500030517578
14.38704652910065,-0.533627986907959,0.4096759855747223,-0.8061760067939758,8.960000038146973,39.39250183105469,-0.7524999976158142
14.407281474992493,-0.6058520078659058,0.3418439924716949,-0.7439559698104858,14.577500343322754,23.677499771118164,-11.00749969482422
14.427516420884336,-0.5809639692306519,0.3376959860324859,-0.7893399596214294,24.3075008392334,60.532501220703125,-9.625
14.44775136677618,-0.6014599800109863,0.3023159801959991,-0.8059319853782654,24.63999938964844,31.325000762939453,-12.3725004196167
14.467986312668023,-0.627079963684082,0.2471719980239868,-0.7683559656143188,29.487499237060547,56.647499084472656,-15.190000534057615
14.488221258559866,-0.5826719999313354,0.1890999972820282,-0.8073959946632385,32.44499969482422,16.030000686645508,-17.97249984741211
14.50845620445171,-0.5658360123634338,0.1656759977340698,-0.8044679760932922,28.857500076293945,63.57749938964844,-13.737500190734863
14.528691150343553,-0.5421679615974426,0.1751919984817505,-0.8076399564743042,28.997499465942383,42.227500915527344,-13.49250030517578
14.548926096235396,-0.5421679615974426,0.1612839996814727,-0.8076399564743042,25.497499465942383,11.864999771118164,-15.190000534057615
14.56916104212724,-0.5450959801673889,0.1603080034255981,-0.8188639879226685,21.332500457763672,14.734999656677246,-13.177499771118164
14.589395988019083,-0.5324079990386963,0.1629920005798339,-0.839847981929779,18.200000762939453,15.574999809265137,-11.357500076293944
14.609630933910926,-0.5199639797210693,0.1520119905471801,-0.8344799876213074,15.68000030517578,12.21500015258789,-10.342499732971191
14.62986587980277,-0.5150839686393738,0.1405439972877502,-0.8222799897193909,14.80500030517578,11.795000076293944,-10.13249969482422
14.650100825694613,-0.5084959864616394,0.152988001704216,-0.815447986125946,13.49250030517578,13.107500076293944,-8.470000267028809
14.670335771586457,-0.4889760017395019,0.1483519971370697,-0.8142279982566833,11.30500030517578,15.75,-6.352499961853027
14.6905707174783,-0.4711639881134033,0.1451800018548965,-0.8147159814834595,10.46500015258789,17.7450008392334,-5.477499961853027
14.710805663370143,-0.4675039947032928,0.1505479961633682,-0.8261839747428894,10.02750015258789,18.059999465942383,-5.635000228881836
14.731040609261987,-0.4711639881134033,0.1356640011072158,-0.8486319780349731,7.630000114440918,38.272499084472656,-4.462500095367432
14.75127555515383,-0.4670159816741943,0.2622999846935272,-0.9193919897079468,10.710000038146973,20.877500534057617,-5.96750020980835
14.771510501045674,-0.468968003988266,0.3298879861831665,-0.9435479640960692,9.327500343322754,0.8224999904632568,-5.512499809265137
14.791745446937517,-0.5519279837608337,-0.0763719975948333,-0.8381400108337402,15.732500076293944,-7.227499961853027,-10.412500381469728
14.81198039282936,-0.3989399969577789,0.0639280006289482,-0.8047119975090027,19.18000030517578,-1.2424999475479126,-16.747499465942383
14.832215338721204,-0.4384679794311523,0.1678719967603683,-0.9228079915046692,10.43000030517578,1.7675000429153442,-8.802499771118164
14.852450284613047,-0.5533919930458069,0.0173240005970001,-0.7947080135345459,8.172499656677246,0.262499988079071,-9.765000343322754
14.87268523050489,-0.530456006526947,0.0592919997870922,-0.8232559561729431,2.817500114440918,1.837499976158142,-5.53000020980835
14.892920176396734,-0.4919039905071258,0.1132159978151321,-0.8620519638061523,-4.707499980926514,-0.1400000005960464,2.2225000858306885
14.913155122288577,-0.4982479810714721,0.1293199956417083,-0.8910880088806152,-7.787499904632568,0.2450000047683715,5.284999847412109
14.93339006818042,-0.508251965045929,0.1127279996871948,-0.8925519585609436,-8.645000457763672,1.3650000095367432,5.582499980926514
14.953625014072264,-0.5084959864616394,0.1163880005478859,-0.8954799771308899,-7.559999942779541,1.2949999570846558,5.389999866485596
14.973859959964107,-0.4904399812221527,0.1317600011825561,-0.8827919960021973,-5.232500076293945,-0.3849999904632568,4.252500057220459
14.99409490585595,-0.4726279973983764,0.1320039927959442,-0.8591240048408508,-2.5899999141693115,-2.765000104904175,2.677500009536743
15.014329851747794,-0.4711639881134033,0.1449359953403473,-0.8459479808807373,0.0700000002980232,-5.53000020980835,1.0149999856948853
15.034564797639637,-0.464819997549057,0.1656759977340698,-0.8354560136795044,2.240000009536743,-7.822500228881836,-0.7699999809265137
15.05479974353148,-0.469211995601654,0.143227994441986,-0.8220359683036804,3.762500047683716,-8.399999618530273,-2.5899999141693115
15.075034689423324,-0.4714079797267914,0.1266359984874725,-0.8303319811820984,4.130000114440918,-6.877500057220459,-2.887500047683716
15.095269635315168,-0.4938559830188751,0.1415199935436248,-0.8276479840278625,0.7524999976158142,-3.202500104904175,-0.8924999833106995
15.115504581207011,-0.4875119924545288,0.1266359984874725,-0.8286240100860596,-0.1225000023841857,-0.8924999833106995,-0.0700000002980232
15.135739527098854,-0.4926359951496124,0.1205359995365142,-0.8376519680023193,-0.3499999940395355,0.1574999988079071,0.1924999952316284
15.155974472990698,-0.4994679987430572,0.1171199977397918,-0.8420439958572388,-0.262499988079071,0.1924999952316284,0.1400000005960464
15.176209418882541,-0.5004439949989319,0.1137039959430694,-0.8505839705467224,-0.2100000083446502,-0.1749999970197677,0.0175000000745058
15.196444364774385,-0.5041040182113647,0.1137039959430694,-0.8583920001983643,0.1225000023841857,-0.4200000166893005,-0.1749999970197677
15.216679310666228,-0.5053240060806274,0.1239520013332367,-0.856440007686615,0.4724999964237213,-0.6825000047683716,-0.4200000166893005
15.236914256558071,-0.5087400078773499,0.1093119978904724,-0.8476560115814209,0.9800000190734864,-1.0499999523162842,-0.7175000309944153
15.257149202449915,-0.4943439960479736,0.1168759986758232,-0.8466799855232239,1.1200000047683716,-0.8575000166893005,-0.612500011920929
15.277384148341758,-0.4987359941005707,0.1254159957170486,-0.8486319780349731,0.6825000047683716,-0.4025000035762787,-0.3499999940395355
15.297619094233601,-0.4931239783763885,0.1266359984874725,-0.8435080051422119,0.2275000065565109,-0.2450000047683715,-0.1225000023841857
15.317854040125445,-0.4914159774780273,0.1300520002841949,-0.8393599987030029,-0.1225000023841857,-0.0350000001490116,0.0700000002980232
15.338088986017288,-0.4901959896087646,0.1320039927959442,-0.8396039605140686,-0.2975000143051147,-0.1225000023841857,0.2275000065565109
15.358323931909132,-0.4894639849662781,0.1363959908485412,-0.8405799865722656,-0.2800000011920929,0.262499988079071,0.1749999970197677
15.378558877800975,-0.4882439970970154,0.13298000395298,-0.8371639847755432,0.4025000035762787,0.8050000071525574,-0.1749999970197677
15.398793823692818,-0.4889760017395019,0.1276119947433471,-0.8369199633598328,0.4025000035762787,0.8224999904632568,-0.2100000083446502
15.419028769584662,-0.4904399812221527,0.1259039938449859,-0.8413119912147522,0.2275000065565109,0.612500011920929,-0.1749999970197677
15.439263715476505,-0.4965399801731109,0.1246839985251426,-0.8493639826774597,0.1050000041723251,0.0874999985098838,-0.1574999988079071
15.459498661368348,-0.4982479810714721,0.1234639957547187,-0.852292001247406,0.0874999985098838,-0.6299999952316284,-0.1050000041723251
15.479733607260192,-0.5001999735832214,0.1234639957547187,-0.852292001247406,0.0175000000745058,-1.1375000476837158,-0.0874999985098838
15.499968553152035,-0.4984920024871826,0.124439999461174,-0.8486319780349731,0.1574999988079071,-1.277500033378601,-0.1924999952316284
15.520203499043879,-0.4970279932022095,0.1263919919729232,-0.8461920022964478,0.2100000083446502,-1.0499999523162842,-0.262499988079071
15.540438444935722,-0.4975159764289856,0.1271239966154098,-0.8437519669532776,0.2275000065565109,-0.9100000262260436,-0.262499988079071
15.560673390827565,-0.497759997844696,0.1273680031299591,-0.843019962310791,0.1050000041723251,-0.8224999904632568,-0.1749999970197677
15.580908336719409,-0.4972719848155975,0.1276119947433471,-0.8396039605140686,0.0700000002980232,-0.7175000309944153,-0.0700000002980232
15.601143282611252,-0.4970279932022095,0.1259039938449859,-0.8400920033454895,0.0350000001490116,-0.9449999928474426,0.0525000020861625
15.621378228503096,-0.4953199923038482,0.1263919919729232,-0.8383839726448059,0.1050000041723251,-0.9800000190734864,0.0525000020861625
15.641613174394939,-0.4945879876613617,0.1273680031299591,-0.8376519680023193,0.1050000041723251,-0.8400000333786011,0.0700000002980232
15.661848120286782,-0.4958080053329468,0.1280999928712844,-0.8386279940605164,-0.0175000000745058,-0.8050000071525574,0.1574999988079071
15.682083066178626,-0.4980039894580841,0.1263919919729232,-0.8396039605140686,0.2975000143051147,-0.962499976158142,-0.0700000002980232
15.702318012070469,-0.4965399801731109,0.128831997513771,-0.8391159772872925,0.5950000286102295,-1.1200000047683716,-0.2800000011920929
15.722552957962312,-0.4982479810714721,0.1283439993858337,-0.8403359651565552,0.6474999785423279,-1.0850000381469729,-0.3499999940395355
15.742787903854156,-0.5004439949989319,0.1271239966154098,-0.8413119912147522,0.6825000047683716,-0.9449999928474426,-0.3849999904632568
15.763022849746,-0.5004439949989319,0.1276119947433471,-0.8371639847755432,0.6650000214576721,-0.8924999833106995,-0.3849999904632568
15.783257795637843,-0.4999559819698334,0.1266359984874725,-0.8374080061912537,0.5249999761581421,-0.699999988079071,-0.2975000143051147
15.803492741529686,-0.4999559819698334,0.1261480003595352,-0.8393599987030029,0.262499988079071,-0.4200000166893005,-0.1749999970197677
15.82372768742153,-0.5016639828681946,0.1254159957170486,-0.8403359651565552,0.1050000041723251,-0.2800000011920929,-0.1050000041723251
15.843962633313373,-0.5011759996414185,0.1256600022315979,-0.8400920033454895,0.1574999988079071,-0.2800000011920929,-0.1050000041723251
15.864197579205216,-0.5004439949989319,0.1266359984874725,-0.8376519680023193,0.1924999952316284,0.0175000000745058,-0.1574999988079071
15.88443252509706,-0.4997119903564453,0.1271239966154098,-0.8371639847755432,0.262499988079071,0.3675000071525574,-0.1749999970197677
15.904667470988903,-0.4994679987430572,0.1276119947433471,-0.8359439969062805,0.2800000011920929,0.5600000023841858,-0.1924999952316284
15.924902416880746,-0.4982479810714721,0.1278560012578964,-0.8369199633598328,0.2800000011920929,0.7875000238418579,-0.1749999970197677
15.94513736277259,-0.497759997844696,0.1280999928712844,-0.8376519680023193,0.3149999976158142,0.875,-0.2275000065565109
15.965372308664433,-0.4987359941005707,0.1283439993858337,-0.8383839726448059,0.3849999904632568,0.9449999928474426,-0.262499988079071
15.985607254556276,-0.4999559819698334,0.1276119947433471,-0.8403359651565552,0.3499999940395355,0.962499976158142,-0.2800000011920929
16.00584220044812,-0.5004439949989319,0.1266359984874725,-0.8410679697990417,0.3499999940395355,1.0499999523162842,-0.2800000011920929
16.026077146339965,-0.4992239773273468,0.1276119947433471,-0.8400920033454895,0.332500010728836,1.0325000286102295,-0.262499988079071
16.04631209223181,-0.4987359941005707,0.1256600022315979,-0.8400920033454895,0.3149999976158142,0.9800000190734864,-0.2800000011920929
16.06654703812365,-0.5006880164146423,0.1261480003595352,-0.843019962310791,0.3149999976158142,0.962499976158142,-0.2800000011920929
16.086781984015495,-0.4997119903564453,0.1276119947433471,-0.8437519669532776,0.3675000071525574,0.9800000190734864,-0.332500010728836
16.10701692990734,-0.4992239773273468,0.1271239966154098,-0.843995988368988,0.4025000035762787,0.962499976158142,-0.2975000143051147
16.127251875799182,-0.4980039894580841,0.1259039938449859,-0.8425319790840149,0.2975000143051147,0.8400000333786011,-0.262499988079071
16.147486821691025,-0.4989799857139587,0.1239520013332367,-0.8413119912147522,0.2100000083446502,0.8224999904632568,-0.1400000005960464
16.16772176758287,-0.4953199923038482,0.1259039938449859,-0.8374080061912537,-0.0175000000745058,0.8050000071525574,-0.0350000001490116
16.187956713474712,-0.4960519969463348,0.1256600022315979,-0.8393599987030029,-0.1574999988079071,0.7175000309944153,0.0700000002980232
16.208191659366555,-0.4972719848155975,0.1271239966154098,-0.8415560126304626,-0.1400000005960464,0.5425000190734863,0.0525000020861625
16.2284266052584,-0.4972719848155975,0.1278560012578964,-0.8442400097846985,0.0175000000745058,0.5074999928474426,-0.0700000002980232
16.248661551150242,-0.4989799857139587,0.128831997513771,-0.8459479808807373,0.262499988079071,0.3499999940395355,-0.2100000083446502
16.268896497042086,-0.4975159764289856,0.1273680031299591,-0.843019962310791,0.4375,0.1574999988079071,-0.2800000011920929
16.28913144293393,-0.497759997844696,0.1273680031299591,-0.8427760004997253,0.4724999964237213,0.4375,-0.3149999976158142
16.309366388825772,-0.4982479810714721,0.1263919919729232,-0.8422879576683044,0.4550000131130218,0.4550000131130218,-0.2800000011920929
16.329601334717616,-0.4980039894580841,0.1268799901008606,-0.8432639837265015,0.4375,0.3675000071525574,-0.262499988079071
16.34983628060946,-0.4980039894580841,0.1254159957170486,-0.8427760004997253,0.3675000071525574,0.3675000071525574,-0.262499988079071
16.370071226501302,-0.4958080053329468,0.1261480003595352,-0.8403359651565552,0.2450000047683715,0.3675000071525574,-0.2275000065565109
16.390306172393146,-0.4967840015888214,0.1263919919729232,-0.8417999744415283,0.2800000011920929,0.4025000035762787,-0.2450000047683715
16.41054111828499,-0.4965399801731109,0.1276119947433471,-0.8410679697990417,0.332500010728836,0.4724999964237213,-0.1924999952316284
16.430776064176833,-0.4955639839172363,0.1268799901008606,-0.8417999744415283,0.332500010728836,0.4900000095367431,-0.2275000065565109
16.451011010068676,-0.4955639839172363,0.1268799901008606,-0.8403359651565552,0.2450000047683715,0.4724999964237213,-0.1749999970197677
16.47124595596052,-0.4970279932022095,0.1268799901008606,-0.8425319790840149,0.2275000065565109,0.4375,-0.1400000005960464
16.491480901852363,-0.4943439960479736,0.1276119947433471,-0.8400920033454895,0.2100000083446502,0.3499999940395355,-0.1400000005960464
16.511715847744206,-0.4960519969463348,0.1273680031299591,-0.8408240079879761,0.2275000065565109,0.4724999964237213,-0.1924999952316284
16.53195079363605,-0.4970279932022095,0.1263919919729232,-0.8435080051422119,0.3849999904632568,0.332500010728836,-0.2800000011920929
16.552185739527893,-0.4960519969463348,0.1261480003595352,-0.843019962310791,0.4724999964237213,0.2275000065565109,-0.2800000011920929
16.572420685419736,-0.497759997844696,0.1259039938449859,-0.8425319790840149,0.5425000190734863,0.0525000020861625,-0.332500010728836
16.59265563131158,-0.4962959885597229,0.1276119947433471,-0.8432639837265015,0.5074999928474426,0.2275000065565109,-0.3149999976158142
16.612890577203423,-0.4965399801731109,0.1259039938449859,-0.8410679697990417,0.4200000166893005,0.2450000047683715,-0.2975000143051147
16.633125523095266,-0.4984920024871826,0.1273680031299591,-0.843019962310791,0.4375,0.3149999976158142,-0.2800000011920929
16.65336046898711,-0.4960519969463348,0.1273680031299591,-0.8437519669532776,0.612500011920929,0.1225000023841857,-0.3149999976158142
16.673595414878953,-0.4970279932022095,0.1266359984874725,-0.8415560126304626,0.7175000309944153,0.1225000023841857,-0.3675000071525574
16.693830360770797,-0.4962959885597229,0.1254159957170486,-0.8393599987030029,0.7175000309944153,0.1400000005960464,-0.3849999904632568
16.71406530666264,-0.4962959885597229,0.1239520013332367,-0.8410679697990417,0.6825000047683716,0.2275000065565109,-0.4025000035762787
16.734300252554483,-0.4950760006904602,0.1251720041036605,-0.8408240079879761,0.5074999928474426,0.262499988079071,-0.2975000143051147
16.754535198446327,-0.4948319792747497,0.1263919919729232,-0.839847981929779,0.2275000065565109,0.2450000047683715,-0.1225000023841857
16.77477014433817,-0.4962959885597229,0.1259039938449859,-0.8415560126304626,0.1400000005960464,0.2450000047683715,-0.1050000041723251
16.795005090230013,-0.4958080053329468,0.1273680031299591,-0.843019962310791,0.2100000083446502,0.262499988079071,-0.1050000041723251
16.815240036121857,-0.4972719848155975,0.1246839985251426,-0.8417999744415283,0.1924999952316284,0.2275000065565109,-0.1225000023841857
16.8354749820137,-0.4975159764289856,0.1249279975891113,-0.843019962310791,0.1924999952316284,0.1225000023841857,-0.1225000023841857
16.855709927905544,-0.4982479810714721,0.1249279975891113,-0.8437519669532776,0.2975000143051147,0.1924999952316284,-0.1400000005960464
16.875944873797387,-0.4975159764289856,0.1298079937696457,-0.8435080051422119,0.262499988079071,0.2800000011920929,-0.0874999985098838
16.89617981968923,-0.4960519969463348,0.1259039938449859,-0.8435080051422119,0.3499999940395355,0.3499999940395355,-0.2275000065565109
16.916414765581074,-0.4948319792747497,0.1280999928712844,-0.8393599987030029,0.3675000071525574,0.4025000035762787,-0.2975000143051147
16.936649711472917,-0.493367999792099,0.1256600022315979,-0.8366760015487671,0.3499999940395355,0.5774999856948853,-0.2800000011920929
16.95688465736476,-0.4945879876613617,0.1246839985251426,-0.8400920033454895,0.2100000083446502,0.6650000214576721,-0.2100000083446502
16.977119603256604,-0.4958080053329468,0.1239520013332367,-0.8427760004997253,0.1225000023841857,0.6825000047683716,-0.1749999970197677
16.997354549148447,-0.4958080053329468,0.1249279975891113,-0.8413119912147522,0.0700000002980232,0.5249999761581421,-0.0525000020861625
17.01758949504029,-0.4958080053329468,0.1259039938449859,-0.8437519669532776,0.0525000020861625,0.612500011920929,-0.0525000020861625
17.037824440932134,-0.4962959885597229,0.1271239966154098,-0.843995988368988,0.1574999988079071,0.6474999785423279,-0.1225000023841857
17.058059386823977,-0.4965399801731109,0.1278560012578964,-0.8457039594650269,0.3149999976158142,0.5774999856948853,-0.2100000083446502
17.07829433271582,-0.4965399801731109,0.1278560012578964,-0.8469240069389343,0.4900000095367431,0.5074999928474426,-0.332500010728836
17.098529278607664,-0.4943439960479736,0.1280999928712844,-0.8447279930114746,0.5249999761581421,0.4724999964237213,-0.3499999940395355
17.118764224499508,-0.4955639839172363,0.1251720041036605,-0.8444839715957642,0.4025000035762787,0.3149999976158142,-0.2800000011920929
17.13899917039135,-0.4975159764289856,0.1227319985628128,-0.843995988368988,0.3499999940395355,0.2975000143051147,-0.2100000083446502
17.159234116283194,-0.4950760006904602,0.1212679967284202,-0.8378959894180298,0.0874999985098838,0.332500010728836,-0.0700000002980232
17.179469062175038,-0.4931239783763885,0.124439999461174,-0.8359439969062805,-0.2975000143051147,0.2975000143051147,0.1574999988079071
17.19970400806688,-0.4931239783763885,0.1263919919729232,-0.8386279940605164,-0.4900000095367431,0.0175000000745058,0.1749999970197677
17.219938953958724,-0.4958080053329468,0.1276119947433471,-0.8425319790840149,-0.3499999940395355,-0.0525000020861625,0.0525000020861625
17.240173899850568,-0.4965399801731109,0.128831997513771,-0.8461920022964478,-0.0175000000745058,-0.1749999970197677,-0.0874999985098838
17.26040884574241,-0.4970279932022095,0.1290760040283203,-0.8457039594650269,0.332500010728836,-0.1050000041723251,-0.2450000047683715
17.280643791634255,-0.4953199923038482,0.1256600022315979,-0.8437519669532776,0.7875000238418579,0.4200000166893005,-0.4900000095367431
17.300878737526098,-0.4965399801731109,0.1251720041036605,-0.8437519669532776,0.5249999761581421,0.6650000214576721,-0.332500010728836
17.32111368341794,-0.4965399801731109,0.1259039938449859,-0.8435080051422119,0.2800000011920929,0.699999988079071,-0.2100000083446502
17.341348629309785,-0.4953199923038482,0.124439999461174,-0.8413119912147522,0.3149999976158142,0.6299999952316284,-0.2275000065565109
17.361583575201628,-0.493367999792099,0.1256600022315979,-0.8393599987030029,0.2100000083446502,0.699999988079071,-0.2100000083446502
17.38181852109347,-0.4945879876613617,0.1256600022315979,-0.843019962310791,0.1574999988079071,0.7175000309944153,-0.1400000005960464
17.402053466985315,-0.4945879876613617,0.1254159957170486,-0.843995988368988,0.2450000047683715,0.5074999928474426,-0.1924999952316284
17.42228841287716,-0.4950760006904602,0.1271239966154098,-0.8444839715957642,0.3499999940395355,0.4900000095367431,-0.2800000011920929
17.442523358769,-0.4950760006904602,0.1261480003595352,-0.843995988368988,0.332500010728836,0.5600000023841858,-0.262499988079071
17.462758304660845,-0.4960519969463348,0.1256600022315979,-0.8457039594650269,0.262499988079071,0.5600000023841858,-0.1574999988079071
17.48299325055269,-0.4950760006904602,0.1256600022315979,-0.8437519669532776,0.1050000041723251,0.2975000143051147,-0.0175000000745058
17.50322819644453,-0.4941000044345855,0.1266359984874725,-0.8425319790840149,0.0874999985098838,0.1400000005960464,-0.0700000002980232
17.523463142336375,-0.4945879876613617,0.1276119947433471,-0.8447279930114746,0.1749999970197677,0.0175000000745058,-0.1574999988079071
17.54369808822822,-0.4953199923038482,0.1266359984874725,-0.843995988368988,0.2975000143051147,-0.0350000001490116,-0.2450000047683715
17.563933034120062,-0.4950760006904602,0.1261480003595352,-0.843995988368988,0.3675000071525574,0.0525000020861625,-0.2800000011920929
17.584167980011905,-0.4948319792747497,0.1271239966154098,-0.843995988368988,0.3149999976158142,0.1050000041723251,-0.2800000011920929
17.60440292590375,-0.4960519969463348,0.1249279975891113,-0.8435080051422119,0.1749999970197677,0.2275000065565109,-0.1924999952316284
17.624637871795592,-0.493367999792099,0.1263919919729232,-0.8427760004997253,0.0874999985098838,0.4375,-0.1050000041723251
17.644872817687435,-0.4958080053329468,0.124439999461174,-0.8427760004997253,0.0525000020861625,0.4375,-0.0700000002980232
17.66510776357928,-0.4962959885597229,0.1254159957170486,-0.8442400097846985,-0.0525000020861625,0.4025000035762787,0.0350000001490116
17.685342709471122,-0.4953199923038482,0.1254159957170486,-0.843995988368988,0.0175000000745058,0.3849999904632568,0.0350000001490116
17.705577655362966,-0.4953199923038482,0.1266359984874725,-0.8417999744415283,0.1225000023841857,0.4200000166893005,-0.0525000020861625
17.72581260125481,-0.493611991405487,0.1266359984874725,-0.8422879576683044,0.2450000047683715,0.4550000131130218,-0.0874999985098838
17.746047547146652,-0.4931239783763885,0.1271239966154098,-0.8420439958572388,0.262499988079071,0.332500010728836,-0.1400000005960464
17.766282493038496,-0.4916599988937378,0.1263919919729232,-0.8391159772872925,0.2275000065565109,0.2975000143051147,-0.1400000005960464
17.78651743893034,-0.4938559830188751,0.1271239966154098,-0.8408240079879761,0.1924999952316284,0.3149999976158142,-0.1225000023841857
17.806752384822182,-0.4943439960479736,0.1263919919729232,-0.8425319790840149,0.1749999970197677,0.332500010728836,-0.1574999988079071
17.826987330714026,-0.4943439960479736,0.1259039938449859,-0.8422879576683044,0.262499988079071,0.2800000011920929,-0.2100000083446502
17.84722227660587,-0.4941000044345855,0.1276119947433471,-0.8417999744415283,0.1924999952316284,0.3499999940395355,-0.1749999970197677
17.867457222497713,-0.4938559830188751,0.1263919919729232,-0.8447279930114746,0.1574999988079071,0.5074999928474426,-0.1225000023841857
17.887692168389556,-0.4960519969463348,0.1285879909992218,-0.8469240069389343,0.2100000083446502,0.4724999964237213,-0.1749999970197677
17.9079271142814,-0.4962959885597229,0.1271239966154098,-0.8454599976539612,0.3149999976158142,0.5249999761581421,-0.2450000047683715
17.928162060173243,-0.4955639839172363,0.1273680031299591,-0.8449719548225403,0.4724999964237213,0.7524999976158142,-0.2975000143051147
17.948397006065086,-0.4950760006904602,0.1276119947433471,-0.8449719548225403,0.4724999964237213,1.0850000381469729,-0.3149999976158142
17.96863195195693,-0.4945879876613617,0.1276119947433471,-0.8476560115814209,0.4550000131130218,1.3125,-0.2975000143051147
17.988866897848773,-0.4960519969463348,0.1259039938449859,-0.8478999733924866,0.4550000131130218,1.4350000619888306,-0.3149999976158142
