Time (seconds),acc_x,acc_y,acc_z,gyro_x,gyro_y,gyro_z
0.02021668143618513,0.1800719946622848,-0.8483879566192627,0.517524003982544,0.4025000035762787,0.6650000214576721,-0.1400000005960464
0.04043336287237026,0.1788519918918609,-0.848143994808197,0.5182560086250305,0.5425000190734863,0.6299999952316284,-0.2450000047683715
0.06065004430855539,0.1798280030488968,-0.84716796875,0.5187439918518066,0.5774999856948853,0.6299999952316284,-0.2450000047683715
0.08086672574474052,0.1788519918918609,-0.8452159762382507,0.5177679657936096,0.5774999856948853,0.8050000071525574,-0.1749999970197677
0.10108340718092565,0.1805599927902221,-0.8400920033454895,0.5187439918518066,0.4550000131130218,1.0674999952316284,-0.1400000005960464
0.12130008861711078,0.1788519918918609,-0.8413119912147522,0.5204519629478455,0.2100000083446502,1.2599999904632568,-0.3149999976158142
0.1415167700532959,0.1808039993047714,-0.8486319780349731,0.5206959843635559,0.699999988079071,1.2424999475479126,-1.2074999809265137
0.16173345148948104,0.1795839965343475,-0.8474119901657104,0.5165479779243469,0.5249999761581421,1.3125,-1.1200000047683716
0.18195013292566617,0.177387997508049,-0.8508279919624329,0.5136200189590454,0.5249999761581421,1.0149999856948853,-0.8050000071525574
0.2021668143618513,0.1776320040225982,-0.84716796875,0.5163040161132812,0.4900000095367431,0.262499988079071,-0.5950000286102295
0.22238349579803643,0.1751919984817505,-0.8449719548225403,0.517524003982544,0.1225000023841857,-0.7875000238418579,-0.5425000190734863
0.24260017723422156,0.1727519929409027,-0.8447279930114746,0.5172799825668335,-0.1400000005960464,-1.5924999713897705,-0.5425000190734863
0.2628168586704067,0.17323999106884,-0.8442400097846985,0.517035961151123,-0.2450000047683715,-1.6449999809265137,-0.2800000011920929
0.2830335401065919,0.1751919984817505,-0.8417999744415283,0.5192319750785828,-0.1924999952316284,-1.1375000476837158,0.1225000023841857
0.30325022154277703,0.1771439909934997,-0.8383839726448059,0.5226479768753052,-0.0525000020861625,-0.6474999785423279,0.4025000035762787
0.3234669029789622,0.1798280030488968,-0.8371639847755432,0.5248439908027649,-0.2800000011920929,-0.0874999985098838,0.7350000143051147
0.34368358441514735,0.1812919974327087,-0.8427760004997253,0.5199639797210693,-0.5425000190734863,-0.0175000000745058,0.8050000071525574
0.3639002658513325,0.1793399900197982,-0.8515599966049194,0.517524003982544,-0.6825000047683716,-0.1924999952316284,0.8050000071525574
0.38411694728751766,0.1754359900951385,-0.8537560105323792,0.513375997543335,-0.2800000011920929,-0.1749999970197677,0.8924999833106995
0.4043336287237028,0.177387997508049,-0.8530240058898926,0.5094720125198364,0.332500010728836,0.2100000083446502,0.9275000095367432
0.424550310159888,0.1795839965343475,-0.8476560115814209,0.5067880153656006,0.8575000166893005,0.962499976158142,1.1200000047683716
0.44476699159607314,0.1739719957113266,-0.8491199612617493,0.4984920024871826,1.4524999856948853,1.8725000619888303,1.2949999570846558
0.4649836730322583,0.1600639969110489,-0.8681519627571106,0.4848279953002929,2.625,3.377500057220459,1.0325000286102295
0.48520035446844345,0.1598199903964996,-0.880840003490448,0.4814119935035705,5.039999961853027,5.40749979019165,0.1400000005960464
0.5054170359046286,0.1725080013275146,-0.8635159730911255,0.5084959864616394,6.965000152587891,6.40500020980835,-0.5600000023841858
0.5256337173408138,0.1866599917411804,-0.8569279909133911,0.5287479758262634,5.425000190734863,7.769999980926514,1.190000057220459
0.5458503987769989,0.2210640013217926,-0.868395984172821,0.5502200126647949,3.5174999237060547,9.817500114440918,3.5174999237060547
0.5660670802131841,0.2171600013971328,-0.896943986415863,0.5702279806137085,2.2225000858306885,11.760000228881836,4.042500019073486
0.5862837616493692,0.1898320019245147,-0.9386679530143738,0.5926759839057922,0.0525000020861625,12.31999969482422,2.922499895095825
0.6065004430855544,0.2020319998264312,-0.9611159563064576,0.6143919825553894,-2.747499942779541,10.587499618530272,1.0850000381469729
0.6267171245217396,0.2269199937582016,-0.9967399835586548,0.6239079833030701,-5.897500038146973,10.02750015258789,1.9774999618530276
0.6469338059579247,0.2091079950332641,-1.0640839338302612,0.6278119683265686,-8.225000381469727,10.675000190734863,4.042500019073486
0.6671504873941099,0.1788519918918609,-1.0950720310211182,0.6134160161018372,-9.887499809265137,8.907500267028809,6.440000057220459
0.687367168830295,0.1644559949636459,-1.0955599546432495,0.6029239892959595,-12.635000228881836,6.037499904632568,8.942500114440918
0.7075838502664802,0.167383998632431,-1.0831159353256226,0.6029239892959595,-15.470000267028809,4.147500038146973,11.2524995803833
0.7278005317026653,0.1666519939899444,-1.0604239702224731,0.5929200053215027,-16.309999465942383,3.902499914169312,12.477499961853027
0.7480172131388505,0.1464000046253204,-1.0284600257873535,0.5511959791183472,-17.780000686645508,5.144999980926514,13.265000343322754
0.7682338945750357,0.1207799986004829,-1.0069879293441772,0.5343599915504456,-17.832500457763672,4.409999847412109,14.262499809265137
0.7884505760112208,0.1054079979658126,-0.9769759774208068,0.5309439897537231,-17.622499465942383,3.3949999809265137,15.24250030517578
0.808667257447406,0.0993079990148544,-0.9523319602012634,0.526308000087738,-18.637500762939453,3.3424999713897705,16.450000762939453
0.8288839388835911,0.1029679998755455,-0.9372040033340454,0.5094720125198364,-19.092500686645508,5.40749979019165,17.762500762939453
0.8491006203197763,0.1088239997625351,-0.9252479672431946,0.493367999792099,-19.162500381469727,8.225000381469727,19.38999938964844
0.8693173017559614,0.1041879951953888,-0.9164639711380004,0.4726279973983764,-18.287500381469727,10.167500495910645,20.42250061035156
0.8895339831921466,0.0871080011129379,-0.8910880088806152,0.4611600041389465,-18.549999237060547,11.30500030517578,20.405000686645508
0.9097506646283318,0.0600240007042884,-0.8857199549674988,0.4506679773330688,-21.40250015258789,12.635000228881836,20.667499542236328
0.9299673460645169,0.0400159992277622,-0.8884040117263794,0.44896000623703,-22.81999969482422,12.880000114440918,20.07250022888184
0.9501840275007021,0.0253759995102882,-0.9086560010910034,0.440663993358612,-22.88999938964844,12.792500495910645,18.6200008392334
0.9704007089368872,0.0241560004651546,-0.90475195646286,0.4301719963550567,-21.315000534057617,13.755000114440918,17.202499389648438
0.9906173903730724,0.0407480001449584,-0.901579976081848,0.41211599111557,-21.47249984741211,15.050000190734863,16.59000015258789
1.0108340718092574,0.0583159998059272,-0.8923079967498779,0.4101639986038208,-21.174999237060547,16.274999618530273,15.645000457763672
1.0310507532454425,0.0536799989640712,-0.8830359578132629,0.4060159921646118,-20.94750022888184,16.852500915527344,14.06999969482422
1.0512674346816275,0.0380639992654323,-0.8915759921073914,0.3938159942626953,-23.292499542236328,16.922500610351562,13.335000038146973
1.0714841161178126,0.0390399992465972,-0.912559986114502,0.3906439840793609,-25.042499542236328,17.46500015258789,12.792500495910645
1.0917007975539976,0.0361119993031024,-0.9347639679908752,0.3835679888725281,-24.167499542236328,18.479999542236328,11.44499969482422
1.1119174789901827,0.0222040005028247,-0.9428159594535828,0.3777119815349579,-22.225000381469727,19.477500915527344,10.0625
1.1321341604263677,0.0019519999623298,-0.949891984462738,0.3752720057964325,-20.77250099182129,19.600000381469727,8.75
1.1523508418625528,-0.0029279999434947,-0.9474520087242126,0.3879599869251251,-20.877500534057617,18.53249931335449,7.315000057220459
1.1725675232987378,-0.0085399998351931,-0.9491599798202516,0.3860079944133758,-22.46999931335449,17.56999969482422,5.96750020980835
1.1927842047349229,0.0070759998634457,-0.952575981616974,0.3781999945640564,-24.46500015258789,17.657499313354492,4.760000228881836
1.213000886171108,0.0231800004839897,-0.958675980567932,0.3738079965114593,-25.96999931335449,18.23500061035156,4.025000095367432
1.233217567607293,0.0153719997033476,-0.9633119702339172,0.3457480072975158,-27.002500534057617,18.32250022888184,4.760000228881836
1.253434249043478,0.0319640003144741,-0.9842959642410278,0.3042680025100708,-27.49250030517578,17.9375,5.670000076293945
1.273650930479663,0.0170799996703863,-1.0260199308395386,0.2737680077552795,-26.4424991607666,17.13249969482422,6.5625
1.293867611915848,-0.0112239997833967,-1.039440035820007,0.2942639887332916,-21.29750061035156,14.84000015258789,7.559999942779541
1.3140842933520331,-0.0161039996892213,-1.024799942970276,0.3198840022087097,-15.225000381469728,12.600000381469728,7.4375
1.3343009747882182,-0.0263519994914531,-1.0235799551010132,0.3352559804916382,-12.005000114440918,11.672499656677246,5.355000019073486
1.3545176562244032,-0.0422119982540607,-1.014307975769043,0.3369639813899994,-5.792500019073486,7.892499923706055,-0.9975000023841858
1.3747343376605883,-0.0439199991524219,-0.9896639585494996,0.3315959870815277,-4.53249979019165,4.375,-2.5199999809265137
1.3949510190967733,-0.0348920002579689,-0.9708759784698486,0.3213479816913605,-5.162499904632568,0.7875000238418579,-3.132499933242798
1.4151677005329584,-0.0248879995197057,-0.9603840112686156,0.3071959912776947,-4.952499866485596,-1.7675000429153442,-4.147500038146973
1.4353843819691434,-0.0124439997598528,-0.938423991203308,0.297679990530014,-3.307500123977661,-4.164999961853027,-6.019999980926514
1.4556010634053285,-0.0017079999670386,-0.9062159657478333,0.2920680046081543,-2.065000057220459,-6.457499980926514,-7.559999942779541
1.4758177448415135,0.0097599998116493,-0.8825479745864868,0.2937760055065155,-2.275000095367432,-8.75,-9.204999923706056
1.4960344262776986,-0.0100039998069405,-0.8586359620094299,0.2906039953231811,-2.817500114440918,-11.182499885559082,-10.09749984741211
1.5162511077138836,-0.0185439996421337,-0.8242319822311401,0.2869440019130707,-1.3825000524520874,-14.1225004196167,-9.869999885559082
1.5364677891500687,-0.0312319993972778,-0.7944639921188354,0.2686440050601959,-0.2800000011920929,-16.11750030517578,-9.170000076293944
1.5566844705862537,-0.0163480006158351,-0.7600600123405457,0.244731992483139,-0.4724999964237213,-17.395000457763672,-8.260000228881836
1.5769011520224387,0.0004879999905824,-0.7122359871864319,0.2469279915094375,-1.8025000095367432,-17.885000228881836,-9.327500343322754
1.5971178334586238,0.0124439997598528,-0.6927160024642944,0.2400960028171539,-4.147500038146973,-17.954999923706055,-10.97249984741211
1.6173345148948088,0.0026839999482035,-0.7019879817962646,0.2052039951086044,-3.2725000381469727,-18.602500915527344,-11.0600004196167
1.6375511963309939,0.0287919994443655,-0.7205320000648499,0.1849519908428192,-0.2975000143051147,-19.232500076293945,-8.522500038146973
1.657767877767179,0.037331998348236,-0.7400519847869873,0.1866599917411804,4.777500152587891,-17.850000381469727,-5.267499923706055
1.677984559203364,0.0302559994161129,-0.7744559645652771,0.2215519994497299,9.712499618530272,-17.989999771118164,-2.694999933242798
1.698201240639549,0.0378200002014637,-0.814471960067749,0.2449759989976883,12.8100004196167,-20.877500534057617,-0.0525000020861625
1.718417922075734,0.0400159992277622,-0.8552199602127075,0.2381439954042434,13.96500015258789,-27.14249992370605,2.782500028610229
1.7386346035119191,0.0453839972615242,-0.8740079998970032,0.1983719915151596,14.244999885559082,-34.54500198364258,6.755000114440918
1.7588512849481042,0.0407480001449584,-0.8966999650001526,0.1934919953346252,13.510000228881836,-40.337501525878906,12.949999809265137
1.7790679663842892,0.0314759984612464,-0.8954799771308899,0.2020319998264312,14.542500495910645,-44.60750198364258,17.832500457763672
1.7992846478204743,0.0326960012316703,-0.8818159699440002,0.2044719904661178,18.1825008392334,-46.23500061035156,21.262500762939453
1.8195013292566593,0.052216000854969,-0.884988009929657,0.1886119991540908,21.104999542236328,-45.622501373291016,25.53249931335449
1.8397180106928444,0.0558759979903698,-0.9145119786262512,0.1363959908485412,18.84749984741211,-45.76250076293945,31.56999969482422
1.8599346921290294,0.0524599999189376,-0.9298839569091796,0.0883279964327812,21.770000457763672,-47.12749862670898,37.415000915527344
1.8801513735652144,0.0900359973311424,-0.8542439937591553,0.0563639998435974,24.482500076293945,-48.26499938964844,39.619998931884766
1.9003680550013995,0.1066280007362365,-0.7995879650115967,0.0822279974818229,23.04750061035156,-40.810001373291016,47.459999084472656
1.9205847364375845,0.0653920024633407,-0.8415560126304626,0.0875959992408752,8.78499984741211,-32.584999084472656,60.8125
1.9408014178737696,0.023667998611927,-0.8781560063362122,0.0470919981598854,-2.799999952316284,-28.50749969482422,67.7074966430664
1.9610180993099546,-0.2637639939785003,-1.176811933517456,0.1805599927902221,-21.59499931335449,-34.5625,67.9000015258789
1.9812347807461397,-0.2588839828968048,-1.3649359941482544,0.3023159801959991,-20.545000076293945,-44.20500183105469,47.35499954223633
2.0014514621823247,-0.2073999941349029,-1.242691993713379,0.3642919957637787,10.447500228881836,-49.77000045776367,20.07250022888184
2.02166814361851,-0.1776320040225982,-1.0033279657363892,0.4138239920139313,33.72249984741211,-57.557498931884766,6.527500152587891
2.0418848250546953,-0.142984002828598,-0.8356999754905701,0.4709199965000152,25.32250022888184,-61.52999877929688,9.484999656677246
2.0621015064908805,-0.1454239934682846,-0.7451759576797485,0.4799479842185974,-3.902499914169312,-56.10499954223633,16.712499618530273
2.082318187927066,-0.1559159904718399,-0.7639639973640442,0.4901959896087646,-35.45500183105469,-55.40499877929688,23.13500022888184
2.102534869363251,-0.2139879912137985,-0.9027999639511108,0.4318799972534179,-55.87749862670898,-61.372501373291016,32.532501220703125
2.1227515507994363,-0.1354199945926666,-1.0806759595870972,0.5463159680366516,-42.26250076293945,-65.66000366210938,31.989999771118164
2.1429682322356216,-0.1122400015592575,-1.1741279363632202,0.6256160140037537,-23.8174991607666,-67.18250274658203,34.63249969482422
2.163184913671807,-0.1559159904718399,-1.1943799257278442,0.6263479590415955,-8.329999923706055,-70.47250366210938,34.352500915527344
2.183401595107992,-0.1876360028982162,-1.0897040367126465,0.5526599884033203,5.127500057220459,-76.77249908447266,30.48500061035156
2.2036182765441774,-0.1434720009565353,-0.9340319633483888,0.4753119945526123,13.212499618530272,-78.62750244140625,24.604999542236328
2.2238349579803627,-0.0468479990959167,-0.8100799918174744,0.3974759876728058,13.63249969482422,-72.78250122070312,21.612499237060547
2.244051639416548,0.0109799997881054,-0.7032079696655273,0.3286679983139038,9.520000457763672,-65.48500061035156,22.9950008392334
2.264268320852733,0.0173240005970001,-0.6805160045623779,0.2798680067062378,-3.255000114440918,-64.24250030517578,28.280000686645508
2.2844850022889185,-0.0436760000884532,-0.7088199853897095,0.2744999825954437,-17.850000381469727,-62.369998931884766,37.09999847412109
2.3047016837251038,-0.0832040011882782,-0.765671968460083,0.3252519965171814,-25.39249992370605,-60.88249969482422,38.77999877929688
2.324918365161289,-0.1005280017852783,-0.8405799865722656,0.3699039816856384,-28.280000686645508,-61.70500183105469,34.6150016784668
2.3451350465974743,-0.1393239945173263,-0.8747400045394897,0.3740519881248474,-23.83500099182129,-65.20500183105469,27.842500686645508
2.3653517280336596,-0.1427399963140487,-0.8732759952545166,0.3962559998035431,-17.447500228881836,-67.53250122070312,24.395000457763672
2.385568409469845,-0.1776320040225982,-0.907435953617096,0.3969880044460296,-15.119999885559082,-63.84000015258789,23.625
2.40578509090603,-0.1861719936132431,-0.933788001537323,0.3911319971084595,-14.1225004196167,-64.05000305175781,23.04750061035156
2.4260017723422154,-0.1507920026779174,-0.941107988357544,0.3703919947147369,-14.47249984741211,-65.76499938964844,21.59499931335449
2.4462184537784006,-0.1134599968791008,-0.9633119702339172,0.3469679951667785,-15.994999885559082,-66.53500366210938,19.232500076293945
2.466435135214586,-0.0807639956474304,-0.9637999534606934,0.3533119857311249,-16.502500534057617,-67.77750396728516,17.954999923706055
2.486651816650771,-0.0936959981918335,-0.9559919834136964,0.3574599921703338,-17.010000228881836,-70.48999786376953,18.44499969482422
2.5068684980869564,-0.1090679988265037,-0.924027979373932,0.3557519912719726,-14.175000190734863,-70.84000396728516,18.58500099182129
2.5270851795231417,-0.1605519950389862,-0.884988009929657,0.3369639813899994,-12.092499732971191,-70.80500030517578,20.96500015258789
2.547301860959327,-0.1598199903964996,-0.8530240058898926,0.3240320086479187,-11.234999656677246,-69.75499725341797,19.670000076293945
2.5675185423955122,-0.1708000004291534,-0.9054839611053468,0.3418439924716949,-15.34749984741211,-66.5875015258789,16.764999389648438
2.5877352238316975,-0.1564040035009384,-0.9191479682922364,0.3657560050487518,-14.664999961853027,-66.65750122070312,14.052499771118164
2.607951905267883,-0.1349319964647293,-0.9308599829673768,0.3825919926166534,-13.282500267028809,-66.23750305175781,12.074999809265137
2.628168586704068,-0.1117519959807396,-0.9559919834136964,0.3933279812335968,-12.967499732971191,-69.2300033569336,10.255000114440918
2.6483852681402533,-0.0783239975571632,-0.9503799676895142,0.4067479968070984,-11.270000457763672,-70.55999755859375,6.317500114440918
2.6686019495764386,-0.1237079948186874,-0.9484279751777648,0.4165079891681671,-8.539999961853027,-69.17749786376953,2.065000057220459
2.688818631012624,-0.0624639987945556,-0.9367159605026244,0.3830800056457519,-8.242500305175781,-70.5425033569336,-0.612500011920929
2.709035312448809,-0.085887998342514,-0.9064599871635436,0.3752720057964325,-6.545000076293945,-68.7925033569336,-2.712500095367432
2.7292519938849944,-0.0861319974064827,-0.9164639711380004,0.3508719801902771,-8.4350004196167,-68.42500305175781,-4.340000152587891
2.7494686753211797,-0.047580000013113,-1.0604239702224731,0.3699039816856384,-11.760000228881836,-63.84000015258789,-2.677500009536743
2.769685356757365,0.0346480011940002,-1.203895926475525,0.374783992767334,-6.317500114440918,-56.77000045776367,2.4674999713897705
2.78990203819355,0.002195999957621,-1.142408013343811,0.3467240035533905,8.994999885559082,-52.37749862670898,5.355000019073486
2.8101187196297355,-0.1090679988265037,-0.9855159521102904,0.3150039911270141,18.77750015258789,-55.6150016784668,2.5899999141693115
2.8303354010659207,-0.1525000035762787,-0.8535119891166687,0.3245199918746948,17.832500457763672,-60.39250183105469,-2.9574999809265137
2.850552082502106,-0.1273680031299591,-0.7502999901771545,0.3450160026550293,11.672499656677246,-58.11750030517578,-4.724999904632568
2.8707687639382913,-0.0924759954214096,-0.7632319927215576,0.3025600016117096,0.962499976158142,-54.72249984741211,1.1549999713897705
2.8909854453744765,-0.0634399950504303,-0.8657119870185852,0.2640079855918884,-6.037499904632568,-56.01750183105469,10.149999618530272
2.911202126810662,-0.0458719991147518,-0.952575981616974,0.2520520091056824,-6.125,-58.52000045776367,16.520000457763672
2.931418808246847,-0.0544119998812675,-1.0111359357833862,0.2561999857425689,-5.914999961853027,-62.51000213623047,15.487500190734863
2.9516354896830324,-0.0312319993972778,-1.044808030128479,0.234484001994133,-5.932499885559082,-69.28250122070312,8.207500457763672
2.9718521711192176,0.0707599967718124,-1.0172359943389893,0.2149640023708343,-2.5199999809265137,-75.1449966430664,-2.0999999046325684
2.992068852555403,0.1222440004348754,-0.9574559926986694,0.2359479963779449,2.677500009536743,-75.00499725341797,-9.55500030517578
3.012285533991588,0.1354199945926666,-0.9049959778785706,0.2876760065555572,-0.6650000214576721,-74.30500030517578,-9.012499809265137
3.0325022154277734,0.1393239945173263,-0.9450119733810424,0.2993879914283752,-10.6225004196167,-74.44499969482422,-4.269999980926514
3.0527188968639587,0.1505479961633682,-1.0218719244003296,0.3208599984645843,-14.332500457763672,-74.86499786376953,-2.555000066757202
3.072935578300144,0.1720200031995773,-1.0474920272827148,0.3137840032577514,-12.267499923706056,-76.28250122070312,-5.40749979019165
3.0931522597363292,0.195932000875473,-1.0238239765167236,0.2810879945755005,-9.204999923706056,-77.71749877929688,-10.640000343322754
3.1133689411725145,0.1971519887447357,-0.965507984161377,0.2486359924077987,-5.144999980926514,-74.95249938964844,-14.962499618530272
3.1335856226086998,0.1910519897937774,-0.8857199549674988,0.2383880019187927,-6.019999980926514,-75.40750122070312,-14.4375
3.153802304044885,0.1590880006551742,-0.8386279940605164,0.2576639950275421,-10.605000495910645,-72.74749755859375,-8.364999771118164
3.1740189854810703,0.1271239966154098,-0.843995988368988,0.2720600068569183,-29.067501068115234,-75.12750244140625,8.050000190734863
3.1942356669172556,0.1510359942913055,-0.900115966796875,0.2671799957752228,-30.729999542236328,-73.22000122070312,10.56999969482422
3.214452348353441,0.1754359900951385,-0.913047969341278,0.2608360052108764,-25.655000686645508,-70.50749969482422,10.202500343322754
3.234669029789626,0.1893439888954162,-0.9128040075302124,0.2500999867916107,-20.52750015258789,-68.21500396728516,11.619999885559082
3.2548857112258114,0.201787993311882,-0.8971880078315735,0.2518079876899719,-15.75,-65.80000305175781,13.387499809265137
3.2751023926619967,0.2095959931612014,-0.8583920001983643,0.2566879987716675,-13.2475004196167,-62.790000915527344,17.622499465942383
3.295319074098182,0.1976400017738342,-0.8171559572219849,0.2603479921817779,-14.36750030517578,-57.69750213623047,24.51749992370605
3.315535755534367,0.185928001999855,-0.827892005443573,0.2625440061092376,-20.387500762939453,-53.532501220703125,32.567501068115234
3.3357524369705525,0.2020319998264312,-0.8703479766845703,0.2764520049095154,-27.71999931335449,-51.09999847412109,38.5
3.3559691184067377,0.2186239957809448,-0.95306396484375,0.2725479900836944,-33.7400016784668,-47.65250015258789,39.83000183105469
3.376185799842923,0.1744599938392639,-1.0528600215911863,0.2625440061092376,-33.127498626708984,-47.82749938964844,36.400001525878906
3.3964024812791083,0.1385920047760009,-1.0721359252929688,0.2735239863395691,-25.77750015258789,-51.1349983215332,27.15999984741211
3.4166191627152935,0.153231993317604,-1.0884839296340942,0.2996319830417633,-23.065000534057617,-54.494998931884766,14.332500457763672
3.436835844151479,0.1698240041732788,-1.1148359775543213,0.2527839839458465,-18.51499938964844,-59.5525016784668,-0.1225000023841857
3.457052525587664,0.1363959908485412,-1.0940959453582764,0.2317999899387359,-5.022500038146973,-66.72750091552734,-2.240000009536743
3.4772692070238493,0.1183400005102157,-1.117275953292847,0.2132560014724731,5.96750020980835,-74.375,3.674999952316284
3.4974858884600346,0.1046760007739067,-1.1943799257278442,0.253028005361557,14.385000228881836,-79.60749816894531,6.860000133514404
3.51770256989622,0.1393239945173263,-1.2863680124282837,0.2752319872379303,19.565000534057617,-83.61499786376953,4.445000171661377
3.537919251332405,0.2259439975023269,-1.3073519468307495,0.1141919940710067,22.645000457763672,-78.59249877929688,0.7350000143051147
3.5581359327685904,0.2871879935264587,-1.3305319547653198,-0.0790559947490692,20.684999465942383,-55.772499084472656,-0.5425000190734863
3.5783526142047757,0.2662039995193481,-1.3083280324935913,-0.0580720007419586,29.26000022888184,-38.79750061035156,0.1400000005960464
3.598569295640961,0.1661639958620071,-1.2034080028533936,0.0246439985930919,47.98500061035156,-41.93000030517578,1.4700000286102295
3.618785977077146,-0.0239119995385408,-1.0753079652786257,0.0878399983048439,62.47499847412109,-50.57500076293945,4.340000152587891
3.6390026585133315,-0.1651879996061325,-0.9267119765281676,0.1554279923439026,65.67749786376953,-60.182498931884766,9.975000381469728
3.6592193399495168,-0.2464399933815002,-0.7427359819412231,0.2237479984760284,64.36499786376953,-57.81999969482422,13.877500534057615
3.679436021385702,-0.2613239884376526,-0.6866160035133362,0.2137439996004104,55.38750076293945,-42.36750030517578,21.01749992370605
3.6996527028218873,-0.2008119970560073,-0.7395640015602112,0.2235039919614792,43.04999923706055,-23.030000686645508,33.127498626708984
3.7198693842580726,-0.0822279974818229,-0.8266719579696655,0.218868002295494,29.34749984741211,-13.317500114440918,42.4900016784668
3.740086065694258,0.0046359999105334,-0.8691279888153076,0.2315559983253479,15.24250030517578,-11.2524995803833,46.182498931884766
3.760302747130443,-0.0151279997080564,-0.9691680073738098,0.2249680012464523,5.897500038146973,-13.614999771118164,44.79999923706055
3.7805194285666284,-0.0956479981541633,-0.998691976070404,0.3425759971141815,34.0724983215332,-25.655000686645508,29.34749984741211
3.8007361100028136,-0.1412760019302368,-0.9142679572105408,0.399183988571167,46.165000915527344,-26.0049991607666,22.0674991607666
3.820952791438999,-0.1693359911441803,-0.8381400108337402,0.3879599869251251,46.54999923706055,-25.497499465942383,18.479999542236328
3.841169472875184,-0.1202920004725456,-0.7890959978103638,0.3552640080451965,34.96500015258789,-26.232500076293945,21.332500457763672
3.8613861543113694,-0.0500199981033802,-0.8100799918174744,0.31768798828125,16.975000381469727,-24.832500457763672,26.0575008392334
3.8816028357475547,-0.0117119997739791,-0.8527799844741821,0.3233000040054321,6.894999980926514,-22.68000030517578,29.137500762939453
3.90181951718374,-0.0219599995762109,-0.8261839747428894,0.354775995016098,6.527500152587891,-21.6825008392334,29.434999465942383
3.9220361986199253,-0.0710039958357811,-0.8193519711494446,0.3799079954624176,4.585000038146973,-22.924999237060547,28.64750099182129
3.9422528800561105,-0.1132159978151321,-0.8051999807357788,0.3816159963607788,1.9600000381469729,-25.549999237060547,25.39249992370605
3.962469561492296,-0.1036999970674514,-0.7786039710044861,0.3977199792861938,-2.2925000190734863,-28.489999771118164,21.979999542236328
3.982686242928481,-0.0710039958357811,-0.7981239557266235,0.4038199782371521,-8.837499618530273,-28.2450008392334,19.862499237060547
4.002902924364666,-0.0287919994443655,-0.8169119954109192,0.4113839864730835,-10.289999961853027,-26.25,16.852500915527344
4.023119605800852,-0.0107359997928142,-0.8115440011024475,0.4147999882698059,-9.11750030517578,-24.045000076293945,13.649999618530272
4.043336287237037,0.0268399994820356,-0.7990999817848206,0.4128479957580566,-9.170000076293944,-21.489999771118164,10.675000190734863
4.063552968673222,0.0487999990582466,-0.7939760088920593,0.3947919905185699,-10.1850004196167,-16.4325008392334,9.1875
4.083769650109407,0.0495319999754428,-0.8149600028991699,0.3921079933643341,-13.2475004196167,-9.957500457763672,8.172499656677246
4.103986331545593,0.0448959991335868,-0.9135359525680542,0.3835679888725281,-17.482500076293945,-2.852499961853028,5.809999942779541
4.124203012981778,0.018300000578165,-1.0052800178527832,0.3882039785385132,-15.960000038146973,3.009999990463257,3.1675000190734863
4.144419694417963,0.0380639992654323,-1.0396839380264282,0.5016639828681946,-8.522500038146973,9.239999771118164,0.9975000023841858
4.1646363758541485,-0.0331839993596077,-1.024799942970276,0.6048759818077087,-0.5600000023841858,16.11750030517578,4.934999942779541
4.184853057290334,-0.2069119960069656,-0.9818559885025024,0.6217119693756104,3.6575000286102295,19.38999938964844,12.494999885559082
4.205069738726519,-0.3159799873828888,-0.9279319643974304,0.6287879943847656,5.232500076293945,19.6875,16.22249984741211
4.225286420162704,-0.3686839938163757,-0.987223982810974,0.6073160171508789,3.7100000381469727,18.917499542236328,15.505000114440918
4.2455031015988896,-0.3052439987659454,-1.1411880254745483,0.6392799615859985,5.565000057220459,15.907500267028809,11.970000267028809
4.265719783035075,-0.2969479858875274,-1.2919800281524658,0.6156119704246521,10.56999969482422,8.417500495910645,8.890000343322754
4.28593646447126,-0.2808440029621124,-1.2949079275131226,0.5643720030784607,20.352500915527344,1.3650000095367432,7.122499942779541
4.306153145907445,-0.2664479911327362,-1.093608021736145,0.4904399812221527,27.52750015258789,-6.019999980926514,5.074999809265137
4.326369827343631,-0.3079279959201813,-0.948915958404541,0.3616079986095428,22.01499938964844,-13.265000343322754,-0.1400000005960464
4.346586508779816,-0.2940199971199035,-0.90938800573349,0.27742800116539,13.545000076293944,-20.71999931335449,-12.949999809265137
4.366803190216001,-0.2742559909820556,-0.9342759847640992,0.1925159990787506,11.0600004196167,-28.997499465942383,-27.440000534057617
4.387019871652186,-0.0146399997174739,-0.9611159563064576,0.0034159999340772,17.7450008392334,-35.97999954223633,-25.112499237060547
4.407236553088372,-0.0719799995422363,-0.958187997341156,0.0109799997881054,21.94499969482422,-44.01250076293945,-20.405000686645508
4.427453234524557,-0.1280999928712844,-0.9496479630470276,0.1444479972124099,16.39750099182129,-65.83499908447266,-20.684999465942383
4.447669915960742,-0.1110199987888336,-0.903775990009308,0.2786479890346527,3.990000009536743,-85.47000122070312,-22.27750015258789
4.4678865973969275,-0.095891997218132,-0.8801079988479614,0.2906039953231811,-6.212500095367432,-86.67749786376953,-22.34749984741211
4.488103278833113,-0.0483120009303092,-0.8915759921073914,0.2820639908313751,-14.350000381469728,-80.1500015258789,-20.877500534057617
4.508319960269298,0.0131759997457265,-0.9408639669418336,0.253028005361557,-19.145000457763672,-72.34500122070312,-19.792499542236328
4.528536641705483,0.0968680009245872,-0.9364719986915588,0.2698639929294586,-12.425000190734863,-69.33499908447266,-19.127500534057617
4.548753323141669,0.1561599969863891,-0.8669319748878479,0.2825520038604736,-7.699999809265137,-71.75,-15.557499885559082
4.568970004577854,0.2000799924135208,-0.7995879650115967,0.2620559930801391,-14.90999984741211,-77.64749908447266,-10.324999809265137
4.589186686014039,0.2144759893417358,-0.806663990020752,0.2452199906110763,-28.104999542236328,-76.19499969482422,-5.792500019073486
4.609403367450224,0.2159399986267089,-0.7886079549789429,0.2713280022144317,-34.0724983215332,-67.07749938964844,-3.132499933242798
4.62962004888641,0.1766559928655624,-0.8091039657592773,0.2903600037097931,-38.8849983215332,-57.75,1.2949999570846558
4.649836730322595,0.1424959897994995,-0.8793759942054749,0.2918239831924438,-37.64250183105469,-52.95500183105469,6.177500247955322
4.67005341175878,0.1407880038022995,-0.8200839757919312,0.289139986038208,-27.59749984741211,-48.70249938964844,9.852499961853027
4.6902700931949655,0.1307840049266815,-0.831063985824585,0.269131988286972,-25.1299991607666,-45.657501220703125,18.6200008392334
4.710486774631151,0.1551840007305145,-0.7766519784927368,0.2664479911327362,-23.04750061035156,-45.13249969482422,27.42250061035156
4.730703456067336,0.1898320019245147,-0.7578639984130859,0.2686440050601959,-25.602500915527344,-42.77000045776367,38.16749954223633
4.750920137503521,0.2422920018434524,-0.8371639847755432,0.2730360031127929,-28.4375,-37.345001220703125,47.005001068115234
4.7711368189397065,0.2296039909124374,-0.9535520076751708,0.3076840043067932,-25.8125,-30.170000076293945,49.9275016784668
4.791353500375892,0.1254159957170486,-1.0584720373153689,0.3296439945697784,-20.71999931335449,-26.38999938964844,44.6775016784668
4.811570181812077,0.0912560001015663,-1.1594879627227783,0.3394039869308471,-15.399999618530272,-27.352500915527344,31.832500457763672
4.831786863248262,0.1210239976644516,-1.1614400148391724,0.3240320086479187,-13.317500114440918,-29.1200008392334,8.732500076293945
4.852003544684448,0.181779995560646,-1.0374879837036133,0.2786479890346527,-13.510000228881836,-34.02000045776367,-12.5649995803833
4.872220226120633,0.1876360028982162,-0.952575981616974,0.2217959910631179,-14.4375,-37.95750045776367,-16.204999923706055
4.892436907556818,0.158843994140625,-0.9925919771194458,0.2784039974212646,-12.460000038146973,-43.01499938964844,-6.510000228881836
4.912653588993003,0.1934919953346252,-1.1158119440078735,0.342087984085083,-3.867500066757202,-45.4474983215332,4.077499866485596
4.932870270429189,0.2088640034198761,-1.336143970489502,0.3237879872322082,6.019999980926514,-42.94499969482422,3.674999952316284
4.953086951865374,0.2073999941349029,-1.4288640022277832,0.3708800077438354,15.225000381469728,-44.64250183105469,-12.72249984741211
4.973303633301559,0.2042279988527298,-1.39519202709198,0.1800719946622848,22.17250061035156,-37.92250061035156,-25.1299991607666
4.9935203147377445,0.0749079957604408,-1.0662800073623655,-0.0358680002391338,53.83000183105469,-34.0724983215332,-15.697500228881836
5.01373699617393,0.0129319997504353,-0.8786439895629883,0.0026839999482035,64.81999969482422,-56.40250015258789,1.3825000524520874
5.033953677610115,-0.1251720041036605,-0.6910079717636108,0.1666519939899444,69.5625,-58.275001525878906,13.982500076293944
5.0541703590463,-0.1983719915151596,-0.7998319864273071,0.3801519870758056,56.875,-36.522499084472656,20.387500762939453
5.074387040482486,-0.1054079979658126,-1.0028399229049685,0.5089839696884155,37.22249984741211,-13.422499656677246,23.8174991607666
5.094603721918671,0.0073199998587369,-1.116055965423584,0.3708800077438354,39.54999923706055,3.5174999237060547,22.854999542236328
5.114820403354856,0.0173240005970001,-1.0460280179977417,0.2808440029621124,62.94750213623047,8.505000114440918,20.59749984741211
5.135037084791041,0.0775920003652572,-0.9152439832687378,0.2557120025157928,64.38249969482422,1.715000033378601,19.4950008392334
5.155253766227227,0.1071159988641738,-0.8866959810256958,0.2239919900894165,48.125,0.5600000023841858,26.25
5.175470447663412,0.0978439971804618,-0.8252080082893372,0.2901159822940826,39.39250183105469,2.7300000190734863,28.73500061035156
5.195687129099597,0.0346480011940002,-0.7847039699554443,0.3772239983081817,29.364999771118164,4.235000133514404,27.020000457763672
5.2159038105357824,-0.0490439981222152,-0.7593280076980591,0.4113839864730835,18.51499938964844,6.352499961853027,22.76749992370605
5.236120491971968,-0.1178519949316978,-0.7854359745979309,0.4060159921646118,7.542500019073486,9.397500038146973,22.08500099182129
5.256337173408153,-0.1283439993858337,-0.8042240142822266,0.3962559998035431,3.5,13.772500038146973,24.07999992370605
5.276553854844338,-0.0885719954967498,-0.8017839789390564,0.4011359810829162,3.4825000762939453,17.412500381469727,26.54750061035156
5.2967705362805235,-0.0546559989452362,-0.7520079612731934,0.3752720057964325,2.625,18.200000762939453,25.655000686645508
5.316987217716709,-0.0568519979715347,-0.6863719820976257,0.3337920010089874,-4.65500020980835,14.1225004196167,22.5575008392334
5.337203899152894,-0.0385520011186599,-0.6658759713172913,0.3516039848327636,-17.989999771118164,11.864999771118164,18.30500030517578
5.357420580589079,-0.0058559998869895,-0.6744160056114197,0.4025999903678894,-27.5625,15.417500495910645,11.760000228881836
5.377637262025265,0.0148839997127652,-0.7205320000648499,0.4255359768867492,-32.252498626708984,19.774999618530277,2.414999961853028
5.39785394346145,0.0317199975252151,-0.7990999817848206,0.4465200006961822,-34.842498779296875,21.332500457763672,-4.269999980926514
5.418070624897635,0.032940000295639,-0.9420839548110962,0.419435977935791,-35.595001220703125,23.940000534057617,-7.472499847412109
5.43828730633382,-0.0102479998022317,-1.0228480100631714,0.3879599869251251,-28.052499771118164,27.825000762939453,-9.432499885559082
5.458503987770006,-0.0485559999942779,-1.048956036567688,0.3940599858760834,-17.184999465942383,28.052499771118164,-9.520000457763672
5.478720669206191,-0.0068319998681545,-1.0211399793624878,0.4399319887161255,-10.045000076293944,29.46999931335449,-2.922499895095825
5.498937350642376,0.0207399986684322,-0.9523319602012634,0.4570119976997375,-7.420000076293945,38.220001220703125,7.595000267028809
5.5191540320785615,-0.0468479990959167,-0.9689239859580994,0.4757999777793884,-6.072500228881836,48.87749862670898,10.09749984741211
5.539370713514747,-0.1200480014085769,-1.1170319318771362,0.5231360197067261,-3.5350000858306885,55.03749847412109,5.162499904632568
5.559587394950932,-0.1100439950823783,-1.3502960205078125,0.607804000377655,2.852499961853028,59.67499923706055,3.692500114440918
5.579804076387117,-0.1756799966096878,-1.5591599941253662,0.5738880038261414,17.622499465942383,65.11750030517578,10.149999618530272
5.6000207578233026,-0.2762079834938049,-0.9425719976425172,0.338916003704071,48.91249847412109,29.3125,-0.7875000238418579
5.620237439259488,-0.2737680077552795,-0.6868599653244019,0.3496519923210144,31.79750061035156,20.440000534057617,-17.86750030517578
5.640454120695673,-0.2674239873886108,-0.6605079770088196,0.3406240046024322,12.529999732971191,23.11750030517578,-36.959999084472656
5.660670802131858,-0.1354199945926666,-0.7742120027542114,0.2291159927845001,-1.7675000429153442,21.997499465942383,-53.47999954223633
5.680887483568044,0.018300000578165,-0.9550159573554992,0.0895479992032051,-0.3675000071525574,23.39750099182129,-57.81999969482422
5.701104165004229,0.1598199903964996,-1.120203971862793,0.0458719991147518,5.267499923706055,21.03499984741211,-40.52999877929688
5.721320846440414,0.1307840049266815,-1.0962920188903809,0.1339560002088546,16.11750030517578,16.344999313354492,-22.190000534057617
5.741537527876599,0.0324519984424114,-0.9335439801216124,0.2725479900836944,21.227500915527344,2.9049999713897705,-23.747499465942383
5.761754209312785,-0.0024399999529123,-0.8598560094833374,0.3601439893245697,9.432499885559082,-7.71750020980835,-32.79500198364258
5.78197089074897,0.0187879987061023,-0.8781560063362122,0.3696599900722503,-3.9375,-6.650000095367432,-43.24250030517578
5.802187572185155,0.0202520005404949,-0.93232399225235,0.3355000019073486,-17.13249969482422,2.799999952316284,-48.125
5.8224042536213405,0.0829599946737289,-0.97843998670578,0.3189080059528351,-23.537500381469727,8.102499961853027,-48.317501068115234
5.842620935057526,0.1400559991598129,-0.9835639595985411,0.2937760055065155,-18.987499237060547,7.997499942779541,-43.942501068115234
5.862837616493711,0.1615279912948608,-0.9035319685935974,0.2759639918804168,-7.175000190734863,2.275000095367432,-38.08000183105469
5.883054297929896,0.1503039896488189,-0.7973920106887817,0.2496119886636734,-4.112500190734863,-5.144999980926514,-33.98500061035156
5.903270979366082,0.1400559991598129,-0.7407839894294739,0.2449759989976883,-13.352499961853027,-8.207500457763672,-31.21999931335449
5.923487660802267,0.1456679999828338,-0.7502999901771545,0.2601040005683899,-28.03499984741211,-6.090000152587891,-23.799999237060547
5.943704342238452,0.13298000395298,-0.8134959936141968,0.2869440019130707,-35.61249923706055,-2.9749999046325684,-12.337499618530272
5.963921023674637,0.1317600011825561,-0.8500959873199463,0.2881639897823334,-31.43000030517578,-3.5174999237060547,-1.627500057220459
5.984137705110823,0.1683599948883056,-0.8239879608154297,0.2825520038604736,-22.9424991607666,-3.745000123977661,6.720000267028809
6.004354386547008,0.2078879922628402,-0.8749839663505554,0.2840159833431244,-19.75749969482422,-0.962499976158142,15.102499961853027
6.024571067983193,0.2274079918861389,-0.9652639627456664,0.2879199981689453,-14.297499656677246,2.782500028610229,18.32250022888184
6.0447877494193785,0.2020319998264312,-1.0194319486618042,0.3362320065498352,-3.692500114440918,6.947500228881836,13.737500190734863
6.065004430855564,0.1698240041732788,-1.09580397605896,0.3491639792919159,4.567500114440918,11.077500343322754,4.340000152587891
6.085221112291749,0.1393239945173263,-1.102147936820984,0.3289119899272918,13.720000267028809,18.1299991607666,-8.767499923706055
6.105437793727934,0.0793000012636184,-1.0011320114135742,0.3276920020580292,17.989999771118164,21.350000381469727,-16.485000610351562
6.1256544751641195,0.0563639998435974,-0.9672159552574158,0.3367199897766113,10.359999656677246,13.212499618530272,-11.550000190734863
6.145871156600305,0.0868639945983886,-1.0984879732131958,0.317931979894638,4.724999904632568,7.664999961853027,-5.284999847412109
6.16608783803649,0.1178519949316978,-1.2056039571762085,0.2964600026607513,7.157500267028809,9.55500030517578,-5.40749979019165
6.186304519472675,0.1986159980297088,-1.2626999616622925,0.187391996383667,13.96500015258789,11.6899995803833,-8.34749984741211
6.206521200908861,0.1525000035762787,-0.901579976081848,0.013663999736309,40.11000061035156,24.97249984741211,-8.067500114440918
6.226737882345046,0.0390399992465972,-0.7305359840393066,0.2156959921121597,28.4375,15.032500267028809,0.4550000131130218
6.246954563781231,-0.0629519969224929,-0.7400519847869873,0.3452599942684173,6.352499961853027,6.912499904632568,11.112500190734863
6.267171245217416,-0.118827998638153,-0.8491199612617493,0.3857640027999878,-8.260000228881836,12.8100004196167,14.332500457763672
6.287387926653602,-0.134443998336792,-1.073599934577942,0.3745400011539459,-10.920000076293944,23.69499969482422,9.15250015258789
6.307604608089787,-0.0278159994632005,-1.1150799989700315,0.3720999956130981,6.090000152587891,28.36750030517578,-1.8025000095367432
6.327821289525972,0.1180959939956665,-1.0801880359649658,0.3781999945640564,21.47249984741211,35.209999084472656,-4.707499980926514
6.3480379709621575,0.158843994140625,-1.0128439664840698,0.3537999987602234,27.037500381469727,44.60750198364258,-0.612500011920929
6.368254652398343,0.1134599968791008,-0.952575981616974,0.3020719885826111,22.5049991607666,45.39500045776367,2.2225000858306885
6.388471333834528,0.0492879971861839,-0.8625400066375732,0.3081719875335693,14.332500457763672,40.057498931884766,-0.262499988079071
6.408688015270713,-0.0065879998728632,-0.8208159804344177,0.3642919957637787,1.5575000047683716,39.28749847412109,-2.6424999237060547
6.428904696706899,-0.0497759990394115,-0.8527799844741821,0.3891800045967102,-9.730000495910645,44.02999877929688,-2.7300000190734863
6.449121378143084,-0.0583159998059272,-0.8769359588623047,0.3903999924659729,-16.450000762939453,49.630001068115234,-2.555000066757202
6.469338059579269,-0.0505079999566078,-0.8925519585609436,0.3574599921703338,-20.842500686645508,55.02000045776367,-1.8725000619888303
6.489554741015454,-0.0490439981222152,-0.8659560084342957,0.3172000050544739,-21.40250015258789,57.64500045776367,-2.380000114440918
6.50977142245164,-0.033671997487545,-0.8017839789390564,0.3071959912776947,-22.0674991607666,55.54500198364258,-4.550000190734863
6.529988103887825,-0.0197639986872673,-0.7903159856796265,0.3064639866352081,-27.037500381469727,53.68999862670898,-6.352499961853027
6.55020478532401,-0.0148839997127652,-0.8088600039482117,0.3272039890289306,-32.70750045776367,54.16249847412109,-7.367499828338623
6.5704214667601955,-0.0341599993407726,-0.8437519669532776,0.3562400043010711,-37.1349983215332,56.33250045776367,-8.137499809265137
6.590638148196381,-0.0778359994292259,-0.8915759921073914,0.3701480031013489,-38.16749954223633,56.94499969482422,-9.572500228881836
6.610854829632566,-0.0878399983048439,-0.9250040054321288,0.3886919915676117,-35.630001068115234,54.75749969482422,-11.6899995803833
6.631071511068751,-0.0614879988133907,-0.954039990901947,0.3840560019016266,-31.762500762939453,52.60499954223633,-14.175000190734863
6.6512881925049365,-0.0934519991278648,-0.9852719902992249,0.3403799831867218,-26.46000099182129,50.62749862670898,-15.032500267028809
6.671504873941122,-0.1327359974384308,-0.9806360006332396,0.3469679951667785,-20.8075008392334,47.31999969482422,-11.970000267028809
6.691721555377307,-0.1222440004348754,-0.935252010822296,0.3608759939670563,-17.9375,45.23749923706055,-7.909999847412109
6.711938236813492,-0.1032119989395141,-0.9513559937477112,0.3376959860324859,-19.72249984741211,48.15999984741211,-3.815000057220459
6.732154918249678,-0.0636840015649795,-1.1360639333724976,0.2701079845428467,-24.587499618530277,52.43000030517578,2.625
6.752371599685863,-0.0319640003144741,-1.307107925415039,0.2093520015478134,-14.664999961853027,57.435001373291016,8.505000114440918
6.772588281122048,-0.0541680008172988,-1.225611925125122,0.1876360028982162,5.985000133514404,58.29249954223633,5.670000076293945
6.792804962558233,-0.1127279996871948,-1.0235799551010132,0.2078879922628402,17.815000534057617,50.470001220703125,-5.477499961853027
6.813021643994419,-0.1900759935379028,-0.9408639669418336,0.2210640013217926,7.559999942779541,35.752498626708984,-20.737499237060547
6.833238325430604,-0.1424959897994995,-1.0277279615402222,0.2461960017681121,4.724999904632568,30.55500030517578,-20.229999542236328
6.853455006866789,-0.0966240018606185,-1.064571976661682,0.2561999857425689,9.677499771118164,25.602500915527344,-16.065000534057617
6.8736716883029745,-0.0895479992032051,-1.024067997932434,0.2571759819984436,18.5674991607666,18.357500076293945,-14.36750030517578
6.89388836973916,-0.1115079969167709,-0.944279968738556,0.2703520059585571,21.89249992370605,8.050000190734863,-15.977499961853027
6.914105051175345,-0.1293199956417083,-0.9054839611053468,0.2945079803466797,15.470000267028809,-1.347499966621399,-17.920000076293945
6.93432173261153,-0.0927200019359588,-0.8971880078315735,0.3003639876842499,4.777500152587891,-7.122499942779541,-19.61750030517578
6.9545384140477156,-0.0180559996515512,-0.8937720060348511,0.264739990234375,-4.199999809265137,-9.047499656677246,-21.2450008392334
6.974755095483901,0.0400159992277622,-0.8908439874649048,0.2254559993743896,-8.1899995803833,-9.047499656677246,-21.489999771118164
6.994971776920086,0.0812520012259483,-0.9206119775772096,0.2117919921875,-9.380000114440918,-11.515000343322754,-19.31999969482422
7.015188458356271,0.1193159967660904,-0.9142679572105408,0.2083759903907776,-6.579999923706055,-14.157500267028809,-17.237499237060547
7.035405139792457,0.1493279933929443,-0.8974319696426392,0.1998360008001327,-5.09250020980835,-15.34749984741211,-13.649999618530272
7.055621821228642,0.1354199945926666,-0.9386679530143738,0.2122799903154373,-4.917500019073486,-15.994999885559082,-10.289999961853027
7.075838502664827,0.0863759964704513,-0.9791719913482666,0.2537599802017212,-2.712500095367432,-19.70499992370605,-7.769999980926514
7.096055184101012,0.0353799983859062,-1.0467599630355835,0.3030479848384857,2.2925000190734863,-26.02250099182129,-6.212500095367432
7.116271865537198,0.0309880003333091,-1.0467599630355835,0.3596560060977936,13.2475004196167,-32.54999923706055,-8.207500457763672
7.136488546973383,0.0683199986815452,-1.0094280242919922,0.3828359842300415,23.415000915527344,-38.744998931884766,-10.307499885559082
7.156705228409568,0.114436000585556,-0.9584319591522216,0.3620959818363189,28.64750099182129,-43.837501525878906,-10.1850004196167
7.1769219098457535,0.1278560012578964,-0.9225639700889589,0.3130519986152649,28.787500381469727,-50.41749954223633,-8.452500343322754
7.197138591281939,0.1019919961690902,-0.8835240006446838,0.2669360041618347,26.65250015258789,-58.782501220703125,-4.21750020980835
7.217355272718124,0.0556319989264011,-0.8708359599113464,0.2527839839458465,21.787500381469727,-67.05999755859375,4.235000133514404
7.237571954154309,0.0153719997033476,-0.8803519606590271,0.2637639939785003,14.350000381469728,-72.55500030517578,13.720000267028809
7.257788635590495,0.0117119997739791,-0.9306159615516664,0.2813319861888885,8.032500267028809,-76.31749725341797,20.387500762939453
7.27800531702668,0.0082959998399019,-0.9847840070724488,0.3106119930744171,7.735000133514404,-80.18499755859375,22.662500381469727
7.298221998462865,0.0456280000507831,-0.9921039938926696,0.3333039879798889,14.717499732971191,-86.57250213623047,20.51000022888184
7.31843867989905,0.0590479969978332,-0.9833199977874756,0.3467240035533905,20.684999465942383,-91.57749938964844,18.795000076293945
7.338655361335236,0.0910120010375976,-0.9103639721870422,0.3225679993629455,21.6825008392334,-94.04499816894533,18.707500457763672
7.358872042771421,0.118827998638153,-0.8837679624557495,0.2989000082015991,13.947500228881836,-95.1999969482422,22.61000061035156
7.379088724207606,0.1605519950389862,-0.8713240027427673,0.3042680025100708,6.159999847412109,-95.93499755859376,26.582500457763672
7.3993054056437915,0.1825120002031326,-0.896943986415863,0.3213479816913605,0.3499999940395355,-95.35749816894533,29.17250061035156
7.419522087079977,0.1237079948186874,-0.9330559968948364,0.3157359957695007,-5.652500152587891,-89.19750213623047,32.462501525878906
7.439738768516162,0.0973559990525245,-0.9345200061798096,0.3174439966678619,-6.84250020980835,-88.7074966430664,33.6349983215332
7.459955449952347,0.1080919951200485,-0.8988959789276123,0.3337920010089874,-6.720000267028809,-88.86499786376953,34.685001373291016
7.4801721313885325,0.1300520002841949,-0.9059720039367676,0.3398919999599457,-7.682499885559082,-88.4625015258789,35.47249984741211
7.500388812824718,0.1578679978847503,-0.925491988658905,0.3467240035533905,-7.857500076293945,-87.25499725341797,36.22499847412109
7.520605494260903,0.1671399921178817,-0.9347639679908752,0.3406240046024322,-6.317500114440918,-86.22250366210938,36.837501525878906
7.540822175697088,0.1468880027532577,-0.9247599840164183,0.3193959891796112,-4.882500171661377,-87.63999938964844,36.084999084472656
7.561038857133274,0.1334680020809173,-0.9235399961471558,0.3323279917240143,-7.157500267028809,-89.00499725341797,35.209999084472656
7.581255538569459,0.1249279975891113,-0.9054839611053468,0.3459919989109039,-9.800000190734863,-87.63999938964844,33.28499984741211
7.601472220005644,0.1407880038022995,-0.8913319706916809,0.3476999998092651,-11.9350004196167,-85.36499786376953,30.712499618530277
7.621688901441829,0.143227994441986,-0.8874279856681824,0.3455039858818054,-16.030000686645508,-83.30000305175781,31.01000022888184
7.641905582878015,0.1512800008058548,-0.93012797832489,0.3311080038547516,-17.7450008392334,-83.93000030517578,30.362499237060547
7.6621222643142,0.1595759987831115,-0.913047969341278,0.3045119941234588,-14.770000457763672,-84.40250396728516,28.6825008392334
7.682338945750385,0.147376000881195,-0.9757559895515442,0.269131988286972,-17.517499923706055,-83.14250183105469,30.78249931335449
7.7025556271865705,0.1334680020809173,-1.066767930984497,0.2598600089550018,-16.3799991607666,-80.69249725341797,29.575000762939453
7.722772308622756,0.1056519970297813,-1.1977959871292114,0.1839759945869445,-15.172499656677246,-77.22750091552734,23.292499542236328
7.742988990058941,0.0922319963574409,-1.3171119689941406,0.1837320029735565,-13.369999885559082,-70.24500274658203,10.46500015258789
7.763205671495126,0.1071159988641738,-1.3898239135742188,0.1951999962329864,-12.635000228881836,-61.82749938964844,-7.454999923706055
7.783422352931312,0.1349319964647293,-1.3188199996948242,0.1239520013332367,-0.4724999964237213,-50.8025016784668,-17.079999923706055
7.803639034367497,0.1869039982557296,-1.1143479347229004,0.2134999930858612,19.600000381469727,-51.782501220703125,-12.005000114440918
7.823855715803682,0.1705559939146042,-0.9862479567527772,0.2503440082073211,38.622501373291016,-63.157501220703125,4.742499828338623
7.844072397239867,0.0536799989640712,-0.9069479703903198,0.2181359976530075,55.47499847412109,-72.78250122070312,22.102500915527344
7.864289078676053,-0.099551998078823,-0.8935279846191406,0.1610399931669235,58.55500030517578,-76.07250213623047,36.62749862670898
7.884505760112238,-0.1951999962329864,-0.8696159720420837,0.1217559948563575,48.84249877929688,-76.33499908447266,41.66749954223633
7.904722441548423,-0.1276119947433471,-0.8098359704017639,0.1490840017795562,30.100000381469727,-75.82749938964844,40.1974983215332
7.9249391229846085,-0.0239119995385408,-0.7488359808921814,0.1700679957866668,13.404999732971191,-69.42250061035156,38.220001220703125
7.945155804420794,0.0849120020866394,-0.774944007396698,0.1971519887447357,-1.7324999570846558,-62.22999954223633,42.71749877929688
7.965372485856979,0.1444479972124099,-0.9545279741287231,0.2205759882926941,-17.604999542236328,-56.17499923706055,49.33250045776367
7.985589167293164,0.1312720030546188,-1.1860840320587158,0.2603479921817779,-14.927499771118164,-46.3224983215332,49.27999877929688
8.005805848729349,0.0690519958734512,-1.2019439935684204,0.3023159801959991,10.237500190734863,-43.6974983215332,40.477500915527344
8.026022530165534,-0.0409919992089271,-1.078724026679993,0.3581919968128204,41.650001525878906,-37.15250015258789,25.655000686645508
8.04623921160172,-0.0844239965081214,-0.9354959726333618,0.3286679983139038,51.32749938964844,-36.435001373291016,19.582500457763672
8.066455893037904,-0.109555996954441,-0.8000760078430176,0.2842600047588348,50.505001068115234,-36.33000183105469,17.86750030517578
8.08667257447409,-0.114436000585556,-0.7002800107002258,0.2810879945755005,38.76250076293945,-34.38750076293945,23.415000915527344
8.106889255910275,-0.1066280007362365,-0.6973519921302795,0.2910920083522796,18.77750015258789,-30.64249992370605,33.35499954223633
8.12710593734646,-0.0639280006289482,-0.7795799970626831,0.3206160068511963,1.5750000476837158,-28.927499771118164,39.130001068115234
8.147322618782646,-0.0185439996421337,-0.8966999650001526,0.3445279896259308,-4.199999809265137,-24.920000076293945,37.834999084472656
8.16753930021883,-0.0036599999293684,-0.982587993144989,0.3413559794425964,0.5074999928474426,-19.600000381469727,32.8125
8.187755981655016,-0.0261080004274845,-0.9869799613952636,0.3274479806423187,10.46500015258789,-18.39249992370605,26.26749992370605
8.207972663091201,-0.0290360003709793,-0.9354959726333618,0.3508719801902771,17.552499771118164,-20.71999931335449,18.917499542236328
8.228189344527387,0.0012199999764561,-0.8591240048408508,0.3872279822826385,16.4325008392334,-21.4375,12.635000228881836
8.248406025963572,0.0668559968471527,-0.843019962310791,0.3952800035476684,8.34749984741211,-18.217500686645508,8.539999961853027
8.268622707399757,0.110287994146347,-0.8286240100860596,0.4001599848270416,1.8200000524520876,-12.477499961853027,7.769999980926514
8.288839388835942,0.0563639998435974,-0.8100799918174744,0.4038199782371521,-4.462500095367432,-6.650000095367432,9.029999732971191
8.309056070272128,-0.0231800004839897,-0.7922679781913757,0.3933279812335968,-9.625,-6.40500020980835,7.297500133514404
8.329272751708313,-0.0412359982728958,-0.8049559593200684,0.4128479957580566,-14.664999961853027,-8.539999961853027,3.902499914169312
8.349489433144498,-0.0131759997457265,-0.8464359641075134,0.4284639954566955,-18.1299991607666,-7.699999809265137,0.5774999856948853
8.369706114580683,0.0356239974498748,-0.8888919949531555,0.4396879971027374,-16.292499542236328,-3.674999952316284,-3.237499952316284
8.389922796016869,0.0641719996929168,-0.9228079915046692,0.4389559924602508,-11.217499732971191,2.327500104904175,-6.860000133514404
8.410139477453054,0.0705159977078437,-0.952575981616974,0.4413959980010986,-6.054999828338623,8.557499885559082,-8.505000114440918
8.43035615888924,0.0539239980280399,-0.9513559937477112,0.452131986618042,-1.9424999952316284,14.192500114440918,-7.840000152587891
8.450572840325425,0.0143959997221827,-0.9135359525680542,0.468968003988266,-0.332500010728836,18.987499237060547,-5.565000057220459
8.47078952176161,-0.032940000295639,-0.843019962310791,0.4743359982967376,-1.225000023841858,22.137500762939453,-3.307500123977661
8.491006203197795,-0.0805199965834617,-0.8198399543762207,0.4926359951496124,-5.057499885559082,25.00749969482422,-0.6299999952316284
8.51122288463398,-0.1124840006232261,-0.8437519669532776,0.4970279932022095,-9.800000190734863,29.38249969482422,0.875
8.531439566070166,-0.1688479930162429,-0.9325679540634156,0.4750680029392242,-12.914999961853027,32.654998779296875,3.202500104904175
8.551656247506351,-0.2686440050601959,-1.1131279468536377,0.4372479915618896,-14.279999732971191,36.76750183105469,8.8725004196167
8.571872928942536,-0.2683999836444855,-1.3759160041809082,0.4718959927558899,-11.0600004196167,38.727500915527344,20.825000762939453
8.592089610378721,-0.1988599896430969,-1.441551923751831,0.5192319750785828,4.392499923706055,36.01499938964844,32.23500061035156
8.612306291814907,-0.2283839881420135,-1.2353719472885132,0.4909279942512512,24.290000915527344,26.25,32.27000045776367
8.632522973251092,-0.3291559815406799,-0.6397680044174194,0.3901560008525848,24.762500762939453,7.157500267028809,3.6575000286102295
8.652739654687277,-0.3215920031070709,-0.7266319990158081,0.3362320065498352,4.112500190734863,2.5374999046325684,-13.649999618530272
8.672956336123463,-0.3333039879798889,-0.9781959652900696,0.2879199981689453,-6.317500114440918,-9.15250015258789,-26.337499618530277
8.693173017559648,-0.2239919900894165,-1.128499984741211,0.2371679991483688,-4.65500020980835,-26.372499465942383,-24.832500457763672
8.713389698995833,-0.1134599968791008,-1.1070280075073242,0.1634799987077713,5.862500190734863,-31.149999618530277,-17.885000228881836
8.733606380432018,-0.046604000031948,-0.9911279678344728,0.0275719985365867,23.082500457763672,-31.46500015258789,-20.15999984741211
8.753823061868204,-0.0397720001637935,-0.9132919907569884,-0.0119559997692704,31.692501068115234,-33.95000076293945,-21.0
8.774039743304389,-0.1356640011072158,-0.8671759963035583,0.1190719977021217,31.989999771118164,-42.087501525878906,-17.9375
8.794256424740574,-0.1849519908428192,-0.8644919991493225,0.2947520017623901,21.857500076293945,-57.73250198364258,-15.855000495910645
8.81447310617676,-0.163235992193222,-0.9608719944953918,0.3669759929180145,4.987500190734863,-72.1875,-13.772500038146973
8.834689787612945,-0.1500599980354309,-1.0687199831008911,0.2989000082015991,-3.692500114440918,-81.60250091552734,-12.267499923706056
8.85490646904913,-0.1158999949693679,-1.0801880359649658,0.2483920007944107,-2.1875,-89.98500061035156,-13.895000457763672
8.875123150485315,-0.0078079998493194,-1.0177240371704102,0.261568009853363,3.3424999713897705,-95.51499938964844,-15.977499961853027
8.8953398319215,0.1073599979281425,-0.8888919949531555,0.2840159833431244,9.432499885559082,-94.3249969482422,-15.78499984741211
8.915556513357686,0.1546960026025772,-0.7837280035018921,0.2781600058078766,7.262499809265137,-91.73500061035156,-9.380000114440918
8.935773194793871,0.1634799987077713,-0.7734799981117249,0.2666919827461242,-5.442500114440918,-92.8550033569336,1.1549999713897705
8.955989876230056,0.1578679978847503,-0.8252080082893372,0.2540040016174316,-20.14249992370605,-93.25749969482422,12.914999961853027
8.976206557666242,0.1395680010318756,-0.9206119775772096,0.2703520059585571,-26.530000686645508,-89.3375015258789,19.9325008392334
8.996423239102427,0.1119959950447082,-0.9589200019836426,0.2881639897823334,-22.45249938964844,-84.7699966430664,21.262500762939453
9.016639920538612,0.1112639978528022,-0.925491988658905,0.293287992477417,-12.739999771118164,-83.2125015258789,20.07250022888184
9.036856601974797,0.1032119989395141,-0.8905999660491943,0.2871879935264587,-8.329999923706055,-82.18000030517578,24.395000457763672
9.057073283410983,0.0856439992785453,-0.8644919991493225,0.2715719938278198,-7.962500095367432,-80.63999938964844,33.1974983215332
9.077289964847168,0.0732000023126602,-0.9179279804229736,0.2515639960765838,-11.77750015258789,-79.43250274658203,42.29750061035156
9.097506646283353,0.115167997777462,-0.9969840049743652,0.2503440082073211,-9.274999618530272,-76.24749755859375,47.022499084472656
9.117723327719538,0.1310279965400695,-1.0272400379180908,0.2654719948768616,-1.6449999809265137,-70.22750091552734,45.08000183105469
9.137940009155724,0.0778359994292259,-1.044319987297058,0.3159799873828888,4.09499979019165,-70.57749938964844,40.54750061035156
9.158156690591909,0.0326960012316703,-1.0140639543533323,0.3972319960594177,7.262499809265137,-82.37249755859375,34.96500015258789
9.178373372028094,-0.0156159996986389,-0.9950319528579712,0.3486759960651397,5.40749979019165,-98.41999816894533,27.52750015258789
9.19859005346428,0.0195199996232986,-1.0277279615402222,0.2618120014667511,11.234999656677246,-110.18000030517578,22.872499465942383
9.218806734900465,0.0836919993162155,-1.0055240392684937,0.1915400028228759,24.7450008392334,-112.3499984741211,24.95499992370605
9.23902341633665,0.099551998078823,-0.9062159657478333,0.2181359976530075,31.21999931335449,-107.04750061035156,38.9900016784668
9.259240097772835,0.1183400005102157,-0.995519995689392,0.2291159927845001,17.9375,-111.2300033569336,40.3025016784668
9.27945677920902,0.1385920047760009,-1.029191970825195,0.2120359987020492,11.199999809265137,-110.26750183105467,33.1974983215332
9.299673460645206,0.1049199998378753,-1.024799942970276,0.2042279988527298,12.302499771118164,-97.80750274658205,31.255001068115234
9.319890142081391,0.0444080010056495,-1.048956036567688,0.2459519952535629,12.670000076293944,-84.22750091552734,39.79500198364258
9.340106823517576,0.0102479998022317,-1.0670119524002075,0.269131988286972,9.467499732971191,-82.38999938964844,48.19499969482422
9.360323504953762,-0.0100039998069405,-1.0589599609375,0.2391199916601181,5.355000019073486,-81.97000122070312,46.83000183105469
9.380540186389947,-0.037331998348236,-0.9803919792175292,0.2281399965286255,2.345000028610229,-77.41999816894531,41.58000183105469
9.400756867826132,-0.0690519958734512,-0.9435479640960692,0.2315559983253479,-3.5,-74.09500122070312,40.54750061035156
9.420973549262317,-0.0941839963197708,-0.9191479682922364,0.2518079876899719,-7.980000019073486,-74.35749816894531,43.38249969482422
9.441190230698503,-0.1158999949693679,-0.907435953617096,0.2769399881362915,-13.667500495910645,-76.77249908447266,48.89500045776367
9.461406912134688,-0.1495719999074936,-0.908411979675293,0.281576007604599,-18.58500099182129,-79.30999755859375,53.72499847412109
9.481623593570873,-0.1559159904718399,-0.9076799750328064,0.2798680067062378,-20.737499237060547,-83.33499908447266,55.5625
9.501840275007059,-0.1485960036516189,-0.9545279741287231,0.269131988286972,-19.75749969482422,-87.72750091552734,54.56499862670898
9.522056956443244,-0.1227319985628128,-0.9198799729347228,0.2432679980993271,-15.487500190734863,-92.24250030517578,50.57500076293945
9.542273637879429,-0.1190719977021217,-0.905239999294281,0.2076440006494522,-16.59000015258789,-95.8125,48.247501373291016
9.562490319315614,-0.1273680031299591,-0.9179279804229736,0.1915400028228759,-20.037500381469727,-98.45500183105467,47.915000915527344
9.5827070007518,-0.1117519959807396,-0.9547719955444336,0.1942239999771118,-22.732500076293945,-100.11750030517578,49.4900016784668
9.602923682187985,-0.1078479960560798,-0.961847960948944,0.1966639906167984,-22.364999771118164,-102.9175033569336,50.71500015258789
9.62314036362417,-0.1115079969167709,-0.9889319539070128,0.2054480016231537,-21.21000099182129,-108.43000030517578,47.35499954223633
9.643357045060355,-0.1139479950070381,-1.0391960144042969,0.2113039940595626,-17.412500381469727,-112.64749908447266,40.82749938964844
9.66357372649654,-0.1129719987511634,-1.0599359273910522,0.2205759882926941,-10.6225004196167,-112.99749755859376,36.470001220703125
9.683790407932726,-0.1027240008115768,-1.0513960123062134,0.2213079929351806,-4.497499942779541,-114.64250183105467,35.77000045776367
9.704007089368911,-0.1093119978904724,-1.020651936531067,0.2037400007247924,0.1924999952316284,-116.14749908447266,35.122501373291016
9.724223770805096,-0.1241960003972053,-0.9972279667854308,0.1927599906921386,2.5899999141693115,-116.1125030517578,33.54750061035156
9.744440452241282,-0.1232199966907501,-0.9913719892501832,0.2025199979543686,2.0999999046325684,-115.6050033569336,33.7400016784668
9.764657133677467,-0.104432001709938,-0.9818559885025024,0.2259439975023269,0.4550000131130218,-116.34000396728516,36.032501220703125
9.784873815113652,-0.0736880004405975,-0.9884439706802368,0.2400960028171539,-0.6650000214576721,-116.69000244140624,39.11249923706055
9.805090496549838,-0.0592919997870922,-0.9991799592971802,0.249123990535736,-0.4375,-113.90750122070312,41.05500030517578
9.825307177986023,-0.0614879988133907,-0.994055986404419,0.2400960028171539,2.0999999046325684,-110.75749969482422,41.63249969482422
9.845523859422208,-0.0627079978585243,-0.9513559937477112,0.2452199906110763,6.457499980926514,-106.4175033569336,36.81999969482422
9.865740540858393,-0.0500199981033802,-0.9184159636497498,0.2718159854412079,5.722499847412109,-103.73999786376952,33.564998626708984
9.885957222294579,-0.0346480011940002,-0.8979200124740601,0.3010959923267364,3.3949999809265137,-99.12000274658205,31.09749984741211
9.906173903730764,-0.0212280005216598,-0.9025560021400452,0.3352559804916382,-0.2800000011920929,-92.69750213623048,29.854999542236328
9.92639058516695,-0.0229359995573759,-0.9320799708366394,0.3447719812393188,-3.569999933242798,-87.09750366210938,29.627500534057617
9.946607266603134,-0.0302559994161129,-0.949404001235962,0.3381839990615845,-2.6075000762939453,-84.875,28.717500686645508
9.96682394803932,-0.0195199996232986,-0.9325679540634156,0.3491639792919159,2.380000114440918,-84.61250305175781,25.1299991607666
9.987040629475505,0.0165919996798038,-0.8893799781799316,0.3806400001049042,6.142499923706055,-83.52750396728516,20.8075008392334
10.00725731091169,0.0256199985742568,-0.8510719537734985,0.4025999903678894,5.827499866485596,-81.11250305175781,17.045000076293945
10.027473992347876,0.0107359997928142,-0.8857199549674988,0.3891800045967102,1.7675000429153442,-78.06749725341797,16.362499237060547
10.04769067378406,0.002195999957621,-0.9772199988365172,0.3777119815349579,-0.699999988079071,-71.61000061035156,18.96999931335449
10.067907355220246,0.0348920002579689,-1.017967939376831,0.3525799810886383,0.4375,-59.9375,22.81999969482422
10.088124036656431,0.0412359982728958,-1.0152839422225952,0.3020719885826111,2.362499952316284,-46.47999954223633,26.565000534057617
10.108340718092617,0.0251320004463195,-0.9801479578018188,0.293287992477417,4.585000038146973,-31.727500915527344,26.162500381469727
10.128557399528802,-0.0087839998304843,-0.9999119639396667,0.2864559888839721,2.362499952316284,-22.627500534057617,21.1924991607666
10.148774080964987,-0.0463600009679794,-0.9913719892501832,0.2979239821434021,1.680000066757202,-21.489999771118164,11.725000381469728
10.168990762401172,-0.0761279985308647,-0.975268006324768,0.3315959870815277,-0.4724999964237213,-22.69750022888184,2.5899999141693115
10.189207443837358,-0.1317600011825561,-1.002351999282837,0.3325719833374023,-3.640000104904175,-22.96000099182129,-3.4649999141693115
10.209424125273543,-0.1498159915208816,-0.9545279741287231,0.3398919999599457,-3.2725000381469727,-26.28499984741211,-6.545000076293945
10.229640806709728,-0.1420079916715622,-0.9091439843177797,0.3476999998092651,-2.870000123977661,-30.502500534057617,-7.244999885559082
10.249857488145913,-0.1246839985251426,-0.9096319675445556,0.3159799873828888,-2.5899999141693115,-36.084999084472656,-7.735000133514404
10.270074169582099,-0.1088239997625351,-0.921343982219696,0.2776719927787781,-2.2925000190734863,-44.02999877929688,-7.490000247955322
10.290290851018284,-0.085156001150608,-0.9128040075302124,0.2518079876899719,-2.922499895095825,-50.872501373291016,-6.054999828338623
10.31050753245447,-0.0646599978208541,-0.9006040096282959,0.2230159938335418,-3.587500095367432,-53.35750198364258,-3.3600001335144043
10.330724213890655,-0.0412359982728958,-0.8669319748878479,0.1849519908428192,-5.074999809265137,-54.26750183105469,-0.3849999904632568
10.35094089532684,-0.0446520000696182,-0.9106079936027528,0.1671399921178817,-9.852499961853027,-56.80500030517578,3.1675000190734863
10.371157576763025,0.037331998348236,-0.9879559874534608,0.2149640023708343,-14.420000076293944,-56.47249984741211,5.757500171661377
10.39137425819921,0.148839995265007,-1.0716480016708374,0.2503440082073211,-16.25749969482422,-50.540000915527344,4.340000152587891
10.411590939635396,0.2437559962272644,-1.1043440103530884,0.2586399912834167,-13.895000457763672,-43.15499877929688,-1.9600000381469729
10.43180762107158,0.297435998916626,-1.1387479305267334,0.2766959965229034,-13.96500015258789,-37.69499969482422,-8.78499984741211
10.452024302507766,0.1827559918165207,-1.0948280096054075,0.2357039898633957,-4.567500114440918,-37.415000915527344,-21.94499969482422
10.472240983943951,0.0319640003144741,-0.9362279772758484,0.2771840095520019,4.637499809265137,-43.64500045776367,-26.98500061035156
10.492457665380137,-0.0836919993162155,-0.8220359683036804,0.3459919989109039,8.032500267028809,-51.834999084472656,-22.75
10.512674346816322,-0.1603080034255981,-0.8166679739952087,0.3742959797382355,9.9399995803833,-58.782501220703125,-6.807499885559082
10.532891028252507,-0.1776320040225982,-0.8625400066375732,0.3745400011539459,18.84749984741211,-62.212501525878906,13.510000228881836
10.553107709688692,-0.1520119905471801,-0.8657119870185852,0.3406240046024322,28.875,-62.52750015258789,30.082500457763672
10.573324391124878,-0.0151279997080564,-0.952575981616974,0.1710439920425415,34.5099983215332,-58.15250015258789,43.41749954223633
10.593541072561063,0.0763719975948333,-1.0128439664840698,0.038307998329401,42.525001525878906,-41.6150016784668,40.14500045776367
10.613757753997248,0.2317999899387359,-0.7905600070953369,0.038307998329401,50.45249938964844,-33.1974983215332,23.170000076293945
10.633974435433434,0.2981680035591125,-0.5436319708824158,0.1068719998002052,36.22499847412109,-33.28499984741211,15.24250030517578
10.654191116869619,0.2610799968242645,-0.6317160129547119,0.2042279988527298,-6.929999828338623,-20.96500015258789,14.857500076293944
10.674407798305804,0.1788519918918609,-1.077015995979309,0.3923519849777221,-50.38249969482422,-12.65250015258789,22.645000457763672
10.69462447974199,0.0065879998728632,-1.3864079713821411,0.5773040056228638,-39.8650016784668,-13.2475004196167,20.614999771118164
10.714841161178175,-0.0590479969978332,-1.2639199495315552,0.7193120121955872,6.894999980926514,-20.7549991607666,12.267499923706056
10.73505784261436,-0.0861319974064827,-1.0279719829559326,0.6983279585838318,29.9950008392334,-19.512500762939453,10.045000076293944
10.755274524050545,-0.109555996954441,-0.9598959684371948,0.550707995891571,29.46999931335449,-4.375,14.90999984741211
10.77549120548673,-0.095160000026226,-0.924027979373932,0.4394440054893493,15.732500076293944,10.289999961853027,23.13500022888184
10.795707886922916,-0.0109799997881054,-0.9145119786262512,0.4470079839229584,-2.572499990463257,9.5024995803833,27.895000457763672
10.815924568359101,0.0270840004086494,-0.944767951965332,0.4718959927558899,-18.14750099182129,2.572499990463257,31.149999618530277
10.836141249795286,-0.0226919986307621,-0.9989359974861144,0.4365159869194031,-27.649999618530277,-2.992500066757202,32.130001068115234
10.856357931231472,-0.0653920024633407,-0.9657520055770874,0.4104079902172088,-25.84749984741211,-4.865000247955322,28.84000015258789
10.876574612667657,-0.0732000023126602,-0.8654679656028748,0.3860079944133758,-22.5049991607666,-1.3825000524520874,23.92250061035156
10.896791294103842,-0.0878399983048439,-0.7603039741516113,0.3533119857311249,-23.22249984741211,4.340000152587891,20.107500076293945
10.917007975540027,-0.1154119968414306,-0.6971079707145691,0.2969479858875274,-28.0,8.645000457763672,17.412500381469727
10.937224656976213,-0.1424959897994995,-0.6683160066604614,0.2705959975719452,-33.14500045776367,9.69499969482422,15.3125
10.957441338412398,-0.1366399973630905,-0.7014999985694885,0.2901159822940826,-39.20000076293945,9.869999885559082,13.282500267028809
10.977658019848583,-0.115167997777462,-0.7627440094947815,0.3147599995136261,-42.244998931884766,14.350000381469728,11.30500030517578
10.997874701284768,-0.119559995830059,-0.8386279940605164,0.334524005651474,-39.935001373291016,20.877500534057617,7.804999828338623
11.018091382720954,-0.1727519929409027,-0.9257360100746156,0.3625839948654175,-32.83000183105469,23.22249984741211,2.5374999046325684
11.038308064157139,-0.2339959889650344,-0.9681919813156128,0.3962559998035431,-21.700000762939453,22.26000022888184,-3.377500057220459
11.058524745593324,-0.2747440040111542,-0.9159759879112244,0.456523984670639,-7.297500133514404,27.912500381469727,-5.232500076293945
11.07874142702951,-0.2740119993686676,-0.918172001838684,0.3850319981575012,-8.015000343322754,33.11000061035156,-1.75
11.098958108465695,-0.2793799936771393,-1.0684759616851809,0.2269199937582016,-12.18000030517578,37.310001373291016,3.8324999809265137
11.11917478990188,-0.1703120023012161,-1.3861639499664309,0.2464399933815002,-13.579999923706056,41.47499847412109,16.502500534057617
11.139391471338065,-0.0395279973745346,-1.4486279487609863,0.3962559998035431,6.019999980926514,47.12749862670898,28.262500762939453
11.15960815277425,0.0341599993407726,-1.1948679685592651,0.3796640038490295,32.4275016784668,50.994998931884766,28.38500022888184
11.179824834210436,0.0444080010056495,-0.949404001235962,0.281819999217987,35.717498779296875,46.8125,3.3949999809265137
11.200041515646621,-0.0675880014896392,-1.0540800094604492,0.1190719977021217,14.210000038146973,45.41249847412109,-25.51499938964844
11.220258197082806,-0.0900359973311424,-1.1712000370025637,0.0814960002899169,-3.6575000286102295,36.540000915527344,-33.529998779296875
11.240474878518992,-0.1405439972877502,-1.1765680313110352,0.0607559978961944,-6.440000057220459,18.32250022888184,-32.497501373291016
11.260691559955177,-0.1542080044746399,-1.0928759574890137,0.0463600009679794,7.105000019073486,-4.724999904632568,-32.147499084472656
11.280908241391362,-0.0946719944477081,-0.9896639585494996,0.0483120009303092,18.934999465942383,-18.357500076293945,-29.45249938964844
11.301124922827547,0.0292799994349479,-0.9594079852104188,0.061243999749422,18.39249992370605,-26.092500686645508,-28.350000381469727
11.321341604263733,0.1593319922685623,-0.9657520055770874,0.0771040022373199,17.920000076293945,-29.942501068115234,-32.970001220703125
11.341558285699918,0.2264319956302642,-0.935252010822296,0.115167997777462,23.309999465942383,-33.35499954223633,-38.43000030517578
11.361774967136103,0.2469279915094375,-0.9306159615516664,0.1593319922685623,25.112499237060547,-36.38249969482422,-42.087501525878906
11.381991648572289,0.1890999972820282,-0.9137799739837646,0.1847079992294311,19.63500022888184,-36.837501525878906,-42.647499084472656
11.402208330008474,0.1434720009565353,-0.924027979373932,0.2305800020694732,7.385000228881836,-39.060001373291016,-39.65499877929688
11.422425011444659,0.1229759976267814,-0.9633119702339172,0.2313119918107986,-2.275000095367432,-38.255001068115234,-37.50249862670898
11.442641692880844,0.1356640011072158,-0.8866959810256958,0.2349720001220703,2.5899999141693115,-34.877498626708984,-37.52000045776367
11.46285837431703,0.1869039982557296,-0.8049559593200684,0.2178919911384582,5.897500038146973,-25.602500915527344,-32.584999084472656
11.483075055753215,0.1905639916658401,-0.7890959978103638,0.1620160043239593,1.8025000095367432,-8.767499923706055,-25.217500686645508
11.5032917371894,0.1666519939899444,-0.7766519784927368,0.1571359932422638,-8.855000495910645,3.430000066757202,-18.917499542236328
11.523508418625585,0.1442039906978607,-0.8108119964599609,0.1703120023012161,-27.59749984741211,5.389999866485596,-12.72249984741211
11.54372510006177,0.1119959950447082,-0.908411979675293,0.2259439975023269,-39.462501525878906,1.1725000143051147,-13.107500076293944
11.563941781497956,0.085156001150608,-1.039440035820007,0.2835280001163482,-35.90999984741211,-3.762500047683716,-18.82999992370605
11.584158462934141,0.0927200019359588,-1.09580397605896,0.3057319819927215,-18.795000076293945,-7.332499980926514,-24.01000022888184
11.604375144370326,0.1444479972124099,-0.966484010219574,0.236191987991333,-0.7175000309944153,-5.670000076293945,-22.1200008392334
11.624591825806512,0.185928001999855,-0.8315519690513611,0.1525000035762787,-1.1549999713897705,-1.627500057220459,-11.760000228881836
11.644808507242697,0.2269199937582016,-0.8149600028991699,0.1598199903964996,-12.72249984741211,-4.322500228881836,0.1749999970197677
11.665025188678882,0.2593719959259033,-0.9306159615516664,0.2620559930801391,-19.54750061035156,-4.392499923706055,11.952500343322754
11.685241870115068,0.2479040026664734,-0.9686799645423888,0.3267160058021545,-12.774999618530272,-0.962499976158142,11.00749969482422
11.705458551551253,0.2352159917354583,-0.965507984161377,0.3940599858760834,-5.372499942779541,1.2599999904632568,9.397500038146973
11.725675232987438,0.2474159896373748,-0.9901520013809204,0.4130919873714447,-1.995000004768372,2.765000104904175,6.107500076293945
11.745891914423623,0.2613239884376526,-1.030411958694458,0.3821039795875549,2.712500095367432,4.235000133514404,-0.8050000071525574
11.766108595859809,0.2637639939785003,-0.9974719882011414,0.3662439882755279,10.989999771118164,6.650000095367432,-7.945000171661377
11.786325277295994,0.2627879977226257,-0.8988959789276123,0.3740519881248474,16.327499389648438,11.357500076293944,-8.137499809265137
11.80654195873218,0.2603479921817779,-0.9081679582595824,0.2776719927787781,14.857500076293944,14.315000534057615,-0.4724999964237213
11.826758640168364,0.297679990530014,-1.1406999826431274,0.0719799995422363,17.639999389648438,13.877500534057615,5.670000076293945
11.84697532160455,0.2581520080566406,-1.423251986503601,0.1180959939956665,22.27750015258789,14.350000381469728,-1.5750000476837158
11.867192003040735,0.1625040024518966,-1.508895993232727,0.1910519897937774,23.520000457763672,13.947500228881836,-25.200000762939453
11.88740868447692,0.1395680010318756,-1.222684025764465,0.0609999969601631,43.505001068115234,17.7450008392334,-43.119998931884766
11.907625365913105,0.0775920003652572,-0.9250040054321288,-0.0531919971108436,54.12749862670898,20.71999931335449,-36.71500015258789
11.92784204734929,0.0495319999754428,-0.8335039615631104,0.0058559998869895,47.880001068115234,15.27750015258789,-14.279999732971191
11.948058728785476,0.0400159992277622,-0.8696159720420837,0.0697840005159378,39.3224983215332,14.175000190734863,7.157500267028809
11.968275410221661,0.0275719985365867,-0.9547719955444336,0.1991039961576461,30.380001068115234,26.145000457763672,14.9975004196167
11.988492091657847,0.0326960012316703,-1.1721760034561155,0.2989000082015991,14.157500267028809,38.08000183105469,8.557499885559082
12.008708773094032,0.0478239990770816,-1.216339945793152,0.2908479869365692,25.270000457763672,47.31999969482422,-2.2225000858306885
12.028925454530217,0.0190319996327161,-1.065060019493103,0.2386319935321808,42.157501220703125,53.147499084472656,-5.302500247955322
12.049142135966402,0.013663999736309,-0.9589200019836426,0.1661639958620071,40.1974983215332,51.88750076293945,0.4200000166893005
12.069358817402588,0.0707599967718124,-0.8632720112800598,0.1766559928655624,32.63750076293945,50.18999862670898,5.442500114440918
12.089575498838773,0.085156001150608,-0.7903159856796265,0.2444880008697509,19.31999969482422,54.337501525878906,8.697500228881836
12.109792180274958,0.0212280005216598,-0.8152039647102356,0.2769399881362915,0.9449999928474426,58.625,11.899999618530272
12.130008861711143,-0.0590479969978332,-0.8771799802780151,0.2908479869365692,-8.154999732971191,61.3025016784668,13.107500076293944
12.150225543147329,-0.1029679998755455,-0.8815720081329346,0.2930440008640289,-6.352499961853027,65.15250396728516,12.21500015258789
12.170442224583514,-0.0919879972934722,-0.8369199633598328,0.3008520007133484,-2.625,68.12750244140625,10.1850004196167
12.1906589060197,-0.0807639956474304,-0.8100799918174744,0.2888959944248199,-4.252500057220459,67.0425033569336,8.75
12.210875587455885,-0.0397720001637935,-0.7876319885253906,0.31768798828125,-8.067500114440918,62.00249862670898,5.792500019073486
12.23109226889207,-0.0217159986495971,-0.7729920148849487,0.3657560050487518,-15.102499961853027,58.13500213623047,0.9800000190734864
12.251308950328255,-0.0414799973368644,-0.8369199633598328,0.3903999924659729,-23.467500686645508,53.27000045776367,-3.692500114440918
12.27152563176444,-0.0739319995045661,-0.9764879941940308,0.4531079828739166,-22.24250030517578,43.73250198364258,-11.707500457763672
12.291742313200626,-0.0234239995479583,-1.0116239786148071,0.4531079828739166,-12.547499656677246,44.02999877929688,-15.050000190734863
12.31195899463681,-0.0085399998351931,-1.0001559257507324,0.44896000623703,-3.2725000381469727,42.17499923706055,-14.5600004196167
12.332175676072996,-0.0480679981410503,-0.9513559937477112,0.4226079881191253,1.3125,36.942501068115234,-12.31999969482422
12.352392357509181,-0.0178119987249374,-0.8613199591636658,0.4172399938106537,3.0450000762939453,31.90250015258789,-15.78499984741211
12.372609038945367,0.002195999957621,-0.8415560126304626,0.4169960021972656,-0.4375,34.6150016784668,-22.102500915527344
12.392825720381552,-0.023667998611927,-0.93012797832489,0.3581919968128204,-1.1725000143051147,38.09749984741211,-28.717500686645508
12.413042401817737,-0.0256199985742568,-1.0704280138015747,0.3069519996643066,4.760000228881836,37.45000076293945,-33.005001068115234
12.433259083253922,0.0500199981033802,-1.1741279363632202,0.2949959933757782,13.15999984741211,40.897499084472656,-30.799999237060547
12.453475764690108,0.0322079993784427,-1.1973079442977903,0.2476599961519241,25.287500381469727,45.744998931884766,-25.51499938964844
12.473692446126293,-0.0239119995385408,-1.1033679246902466,0.1781200021505355,39.00749969482422,41.790000915527344,-24.36000061035156
12.493909127562478,-0.0588039979338645,-0.9545279741287231,0.1444479972124099,38.0625,33.337501525878906,-27.59749984741211
12.514125808998664,-0.147376000881195,-0.8574159741401672,0.1639679968357086,17.6924991607666,25.82999992370605,-35.560001373291016
12.534342490434849,-0.1322479993104934,-0.9162200093269348,0.2056919932365417,-8.925000190734863,17.46500015258789,-42.75249862670898
12.554559171871034,-0.0109799997881054,-1.0084519386291504,0.2757200002670288,-25.252500534057617,15.27750015258789,-43.45249938964844
12.57477585330722,0.0609999969601631,-1.0528600215911863,0.2762079834938049,-28.15749931335449,18.95249938964844,-38.36000061035156
12.594992534743405,0.1110199987888336,-1.0379760265350342,0.2186239957809448,-21.90999984741211,14.980000495910645,-34.037498474121094
12.61520921617959,0.1676279902458191,-0.9799039959907532,0.2095959931612014,-14.734999656677246,9.380000114440918,-32.462501525878906
12.635425897615775,0.1700679957866668,-0.9677039980888368,0.2073999941349029,-18.51499938964844,4.934999942779541,-29.61000061035156
12.65564257905196,0.1783639937639236,-1.0182119607925415,0.2291159927845001,-29.155000686645508,-1.4700000286102295,-30.32749938964844
12.675859260488146,0.2034959942102432,-0.994055986404419,0.2386319935321808,-28.052499771118164,-1.5049999952316284,-37.6775016784668
12.696075941924331,0.2081319987773895,-0.9242720007896424,0.2383880019187927,-23.274999618530277,2.4674999713897705,-40.459999084472656
12.716292623360516,0.191783994436264,-0.9264679551124572,0.244731992483139,-22.75,4.829999923706055,-35.33250045776367
12.736509304796702,0.1729959994554519,-0.8693720102310181,0.2378999888896942,-16.1875,6.090000152587891,-27.649999618530277
12.756725986232887,0.1459119915962219,-0.8496080040931702,0.2164279967546463,-14.699999809265137,6.264999866485596,-17.9375
12.776942667669072,0.1202920004725456,-0.8857199549674988,0.2359479963779449,-18.51499938964844,5.949999809265137,-11.917500495910645
12.797159349105257,0.1222440004348754,-0.9659959673881532,0.2608360052108764,-19.512500762939453,6.947500228881836,-11.899999618530272
12.817376030541443,0.163235992193222,-0.9989359974861144,0.2830399870872497,-12.109999656677246,6.929999828338623,-15.907500267028809
12.837592711977628,0.1988599896430969,-0.9652639627456664,0.2588839828968048,-4.409999847412109,7.105000019073486,-17.762500762939453
12.857809393413813,0.2095959931612014,-0.9218319654464722,0.2198439985513687,-2.5374999046325684,6.720000267028809,-13.93000030517578
12.878026074849998,0.2039839923381805,-0.9298839569091796,0.1881240010261535,-12.5649995803833,3.377500057220459,-2.1524999141693115
12.898242756286184,0.2159399986267089,-0.974291980266571,0.2073999941349029,-15.767499923706056,4.112500190734863,-2.047499895095825
12.918459437722369,0.2342399954795837,-1.0040600299835205,0.2117919921875,-13.230000495910645,4.900000095367432,-5.565000057220459
12.938676119158554,0.2386319935321808,-0.9835639595985411,0.1956879943609237,-8.399999618530273,5.460000038146973,-9.362500190734863
12.95889280059474,0.2298479974269867,-0.9479399919509888,0.17323999106884,-6.877500057220459,7.385000228881836,-9.55500030517578
12.979109482030925,0.2156959921121597,-0.9142679572105408,0.1505479961633682,-8.505000114440918,9.800000190734863,-6.492499828338623
12.99932616346711,0.1951999962329864,-0.9198799729347228,0.1583559960126876,-12.880000114440918,12.5649995803833,-1.75
13.019542844903295,0.1644559949636459,-0.9496479630470276,0.1764120012521743,-16.607500076293945,15.329999923706056,1.6100000143051147
13.03975952633948,0.1493279933929443,-0.9781959652900696,0.1869039982557296,-17.517499923706055,17.395000457763672,1.3125
13.059976207775666,0.17323999106884,-0.9945439696311952,0.1812919974327087,-16.625,18.987499237060547,-0.6474999785423279
13.080192889211851,0.1934919953346252,-0.9938119649887084,0.1703120023012161,-14.40250015258789,21.0,-3.7799999713897705
13.100409570648036,0.1991039961576461,-0.9791719913482666,0.1861719936132431,-13.177499771118164,19.70499992370605,-7.139999866485596
13.120626252084222,0.1954440027475357,-0.9891759753227234,0.2030079960823059,-13.545000076293944,16.082500457763672,-8.557499885559082
13.140842933520407,0.1764120012521743,-0.9945439696311952,0.2154520004987716,-13.369999885559082,12.600000381469728,-8.819999694824219
13.161059614956592,0.1603080034255981,-1.004547953605652,0.2147199958562851,-11.707500457763672,9.9399995803833,-8.382499694824219
13.181276296392777,0.1695799976587295,-1.0050359964370728,0.2115480005741119,-8.382499694824219,8.417500495910645,-7.699999809265137
13.201492977828963,0.1893439888954162,-0.9830759763717652,0.1908079981803894,-5.337500095367432,7.227499961853027,-7.349999904632568
13.221709659265148,0.205935999751091,-0.9508680105209352,0.1893439888954162,-4.53249979019165,5.074999809265137,-6.28249979019165
13.241926340701333,0.2125239968299865,-0.9479399919509888,0.1944679915904998,-5.005000114440918,2.870000123977661,-5.547500133514404
13.262143022137518,0.210327997803688,-0.9406200051307678,0.1908079981803894,-4.619999885559082,2.275000095367432,-5.949999809265137
13.282359703573704,0.2025199979543686,-0.9408639669418336,0.1922719925642013,-4.53249979019165,2.2225000858306885,-7.139999866485596
13.302576385009889,0.2054480016231537,-0.9576999545097352,0.1925159990787506,-4.917500019073486,1.784999966621399,-8.732500076293945
13.322793066446074,0.2091079950332641,-0.9464759826660156,0.1922719925642013,-3.3600001335144043,2.134999990463257,-10.5
13.34300974788226,0.2259439975023269,-0.9293959736824036,0.1932480037212371,-2.712500095367432,2.2925000190734863,-11.199999809265137
13.363226429318445,0.2376559972763061,-0.9398880004882812,0.1905639916658401,-3.220000028610229,2.0999999046325684,-10.395000457763672
13.38344311075463,0.2381439954042434,-0.9545279741287231,0.191783994436264,-2.2049999237060547,2.5899999141693115,-9.572500228881836
13.403659792190815,0.2281399965286255,-0.9735599756240844,0.2115480005741119,-1.8899999856948853,2.8350000381469727,-7.699999809265137
13.423876473627,0.2073999941349029,-0.994055986404419,0.2310680001974105,-2.5374999046325684,0.9800000190734864,-4.619999885559082
13.444093155063186,0.1942239999771118,-1.0057679414749146,0.2227720022201538,-2.0999999046325684,-2.677500009536743,-2.870000123977661
13.464309836499371,0.1837320029735565,-0.9840520024299622,0.2169159948825836,0.5950000286102295,-5.232500076293945,-4.21750020980835
13.484526517935556,0.2222839891910553,-0.9830759763717652,0.2283839881420135,0.6474999785423279,-7.822500228881836,-5.599999904632568
13.504743199371742,0.2227720022201538,-0.9879559874534608,0.2081319987773895,2.1875,-10.324999809265137,-5.740000247955322
13.524959880807927,0.226187989115715,-0.9747799634933472,0.2027639895677566,3.0450000762939453,-12.512499809265137,-6.264999866485596
13.545176562244112,0.2496119886636734,-0.9420839548110962,0.1871479898691177,1.8025000095367432,-12.18000030517578,-5.477499961853027
13.565393243680298,0.2583959996700287,-0.920367956161499,0.1554279923439026,-0.5950000286102295,-10.9375,-3.220000028610229
13.585609925116483,0.2479040026664734,-0.9149999618530272,0.1507920026779174,-3.4825000762939453,-10.02750015258789,0.0525000020861625
13.605826606552668,0.2210640013217926,-0.9413520097732544,0.1510359942913055,-5.862500190734863,-8.819999694824219,3.220000028610229
13.626043287988853,0.2071560025215149,-0.9598959684371948,0.1500599980354309,-6.912499904632568,-6.457499980926514,4.130000114440918
13.646259969425039,0.2232600003480911,-0.9723399877548218,0.1510359942913055,-8.067500114440918,-3.674999952316284,3.762500047683716
13.666476650861224,0.2444880008697509,-0.974291980266571,0.1407880038022995,-8.942500114440918,-1.1200000047683716,2.555000066757202
13.68669333229741,0.2522960007190704,-0.9594079852104188,0.1261480003595352,-10.8149995803833,0.332500010728836,0.3849999904632568
13.706910013733594,0.2662039995193481,-0.957211971282959,0.1046760007739067,-14.40250015258789,2.327500104904175,-2.450000047683716
13.72712669516978,0.2981680035591125,-0.9550159573554992,0.0800319984555244,-18.14750099182129,8.75,-5.232500076293945
13.747343376605965,0.3115879893302917,-0.949891984462738,0.1000399962067604,-24.290000915527344,15.119999885559082,-7.840000152587891
13.76756005804215,0.3362320065498352,-0.9550159573554992,0.1215119957923889,-30.100000381469727,18.32250022888184,-9.25749969482422
13.787776739478335,0.3337920010089874,-0.9611159563064576,0.1085800006985664,-31.832500457763672,25.427499771118164,-9.135000228881836
13.80799342091452,0.3076840043067932,-0.9472079873085022,0.1427399963140487,-28.84000015258789,30.940000534057617,-6.28249979019165
13.828210102350706,0.2698639929294586,-0.9271999597549438,0.1583559960126876,-23.712499618530277,32.287498474121094,-0.699999988079071
13.848426783786891,0.1844639927148819,-0.9115839600563048,0.1708000004291534,-18.00749969482422,30.04750061035156,5.512499809265137
13.868643465223077,0.1527439951896667,-0.8979200124740601,0.1647000014781952,-14.1225004196167,26.0049991607666,10.920000076293944
13.888860146659262,0.2217959910631179,-0.8945040106773376,0.1227319985628128,-13.282500267028809,27.3700008392334,14.787500381469728
13.909076828095447,0.3081719875335693,-0.9264679551124572,0.0793000012636184,-14.787500381469728,32.8650016784668,17.412500381469727
13.929293509531632,0.3191519975662231,-0.9833199977874756,0.0778359994292259,-14.105000495910645,35.84000015258789,18.51499938964844
13.949510190967818,0.273279994726181,-1.0455399751663208,0.1180959939956665,-7.559999942779541,32.95249938964844,16.782499313354492
13.969726872404003,0.1966639906167984,-1.0809199810028076,0.1339560002088546,1.9075000286102293,27.755001068115234,12.355000495910645
13.989943553840188,0.1786080002784729,-1.0452959537506104,0.2005679905414581,9.432499885559082,22.924999237060547,5.827499866485596
14.010160235276373,0.1554279923439026,-0.9943000078201294,0.2044719904661178,11.532500267028809,24.045000076293945,1.8200000524520876
14.030376916712559,0.1537199914455413,-0.9591639637947084,0.1842200011014938,10.09749984741211,24.56999969482422,0.8050000071525574
14.050593598148744,0.1761679947376251,-0.9274439811706544,0.1800719946622848,8.8725004196167,24.88500022888184,3.6575000286102295
14.07081027958493,0.1881240010261535,-0.9025560021400452,0.2008119970560073,6.929999828338623,22.90749931335449,9.852499961853027
14.091026961021115,0.1951999962329864,-0.9433040022850036,0.2513200044631958,6.492499828338623,11.77750015258789,17.184999465942383
14.1112436424573,0.1988599896430969,-0.9662399888038636,0.2427799999713897,8.645000457763672,7.175000190734863,14.279999732971191
14.131460323893485,0.2300919890403747,-1.0069879293441772,0.228872001171112,11.164999961853027,3.972500085830689,10.342499732971191
14.15167700532967,0.2100839912891388,-0.9764879941940308,0.2264319956302642,17.989999771118164,5.792500019073486,9.082500457763672
14.171893686765856,0.1610399931669235,-0.9206119775772096,0.2415599972009658,19.862499237060547,3.2725000381469727,14.332500457763672
14.19211036820204,0.1259039938449859,-0.905239999294281,0.2769399881362915,17.0625,0.2275000065565109,21.13999938964844
14.212327049638226,0.1105320006608963,-0.9013359546661376,0.3079279959201813,14.315000534057615,-0.2800000011920929,26.28499984741211
14.232543731074411,0.1229759976267814,-0.9232959747314452,0.31768798828125,12.529999732971191,2.327500104904175,29.137500762939453
14.252760412510597,0.1542080044746399,-0.929639995098114,0.3111000061035156,13.789999961853027,6.264999866485596,29.75
14.272977093946782,0.1947119981050491,-0.9364719986915588,0.3367199897766113,14.595000267028809,8.470000267028809,29.32999992370605
14.293193775382967,0.1856839954853058,-0.993079960346222,0.3818599879741668,16.22249984741211,7.735000133514404,28.64750099182129
14.313410456819152,0.1847079992294311,-1.036512017250061,0.3518480062484741,23.78249931335449,6.824999809265137,27.352500915527344
14.333627138255338,0.1861719936132431,-1.0757960081100464,0.1949559897184372,35.525001525878906,9.817500114440918,24.850000381469727
14.353843819691523,0.1381039917469024,-1.1402119398117063,0.1503039896488189,40.7400016784668,9.467499732971191,18.479999542236328
14.374060501127708,0.0258639995008707,-1.3149160146713257,0.1781200021505355,33.70500183105469,0.7699999809265137,-1.0499999523162842
14.394277182563894,-0.038307998329401,-1.2444000244140625,0.1359079927206039,43.81999969482422,-8.119999885559082,-29.540000915527344
14.414493864000079,0.023667998611927,-0.8998720049858093,0.0939399972558021,59.97249984741211,-10.079999923706056,-41.26499938964844
14.434710545436264,0.1466439962387085,-0.7688440084457397,0.1163880005478859,49.54249954223633,-4.21750020980835,-23.83500099182129
14.45492722687245,0.2249680012464523,-0.8164240121841431,0.1969079971313476,29.81999969482422,7.997499942779541,12.092499732971191
14.475143908308635,0.1034559980034828,-0.9850279688835144,0.2220399975776672,10.324999809265137,19.0049991607666,42.89250183105469
14.49536058974482,-0.023667998611927,-1.1387479305267334,0.2227720022201538,7.0,16.485000610351562,41.45750045776367
14.515577271181005,-0.065880000591278,-1.184620022773743,0.3169559836387634,26.70499992370605,14.175000190734863,18.58500099182129
14.53579395261719,-0.0234239995479583,-1.0111359357833862,0.4177280068397522,46.70750045776367,21.612499237060547,0.1400000005960464
14.556010634053376,0.0539239980280399,-0.9425719976425172,0.4057720005512237,43.2599983215332,31.0625,-2.677500009536743
14.576227315489561,0.128831997513771,-0.9567239880561828,0.3340359926223755,35.73500061035156,38.0625,3.0625
14.596443996925746,0.1229759976267814,-0.9398880004882812,0.2703520059585571,30.729999542236328,44.50249862670898,11.6899995803833
14.616660678361932,0.0439199991524219,-0.8679080009460449,0.2305800020694732,24.832500457763672,48.40499877929688,17.447500228881836
14.636877359798117,-0.0431879982352256,-0.8193519711494446,0.2471719980239868,14.244999885559082,47.21500015258789,17.219999313354492
14.657094041234302,-0.1017479971051216,-0.8361879587173462,0.3369639813899994,6.072500228881836,44.747501373291016,12.145000457763672
14.677310722670487,-0.1061399951577186,-0.879863977432251,0.3659999966621399,6.632500171661377,45.79750061035156,4.952499866485596
14.697527404106673,-0.1019919961690902,-0.981123983860016,0.3938159942626953,21.45499992370605,38.657501220703125,-4.182499885559082
14.717744085542858,-0.0802759975194931,-0.9367159605026244,0.420412003993988,29.854999542236328,31.114999771118164,-7.262499809265137
14.737960766979043,-0.0788119956851005,-0.9040200114250184,0.4057720005512237,30.940000534057617,25.34000015258789,-8.574999809265137
14.758177448415228,-0.099551998078823,-0.8681519627571106,0.3882039785385132,25.864999771118164,21.15749931335449,-7.525000095367432
14.778394129851414,-0.115167997777462,-0.8783999681472778,0.3901560008525848,15.260000228881836,18.51499938964844,-2.625
14.798610811287599,-0.0875959992408752,-0.892795979976654,0.4138239920139313,8.505000114440918,19.18000030517578,2.6075000762939453
14.818827492723784,-0.0646599978208541,-0.900115966796875,0.4043079912662506,4.164999961853027,19.092500686645508,4.952499866485596
14.83904417415997,-0.0861319974064827,-0.88401198387146,0.3801519870758056,0.7875000238418579,16.082500457763672,4.252500057220459
14.859260855596155,-0.0893040001392364,-0.8417999744415283,0.4040639996528625,-0.8224999904632568,12.600000381469728,3.745000123977661
14.87947753703234,-0.0807639956474304,-0.8315519690513611,0.4050399959087372,-2.555000066757202,12.092499732971191,1.399999976158142
14.899694218468525,-0.1041879951953888,-0.8823039531707764,0.3825919926166534,-6.230000019073486,7.402500152587891,1.75
14.91991089990471,-0.1361519992351532,-0.8979200124740601,0.3928399980068207,-10.307499885559082,0.612500011920929,4.96999979019165
14.940127581340896,-0.1527439951896667,-0.9020679593086244,0.4299280047416687,-12.75749969482422,-3.4825000762939453,7.472499847412109
14.960344262777081,-0.1615279912948608,-0.8957239985466003,0.4394440054893493,-11.392499923706056,-7.105000019073486,7.262499809265137
14.980560944213266,-0.1515239924192428,-0.8879159688949585,0.44896000623703,-9.572500228881836,-11.130000114440918,6.264999866485596
15.000777625649452,-0.1363959908485412,-0.8998720049858093,0.4428599774837494,-10.0625,-15.067500114440918,6.597499847412109
15.020994307085637,-0.1115079969167709,-0.920367956161499,0.4452999830245971,-11.00749969482422,-20.895000457763672,8.067500114440918
15.041210988521822,-0.0780799984931945,-0.9308599829673768,0.4413959980010986,-11.427499771118164,-25.287500381469727,9.327500343322754
15.061427669958007,-0.0719799995422363,-0.92085599899292,0.4184599816799164,-12.529999732971191,-25.427499771118164,11.462499618530272
15.081644351394193,-0.0824719965457916,-0.891819953918457,0.3886919915676117,-14.962499618530272,-23.905000686645508,13.859999656677246
15.101861032830378,-0.1015039980411529,-0.8749839663505554,0.3611199855804443,-19.424999237060547,-22.1200008392334,15.855000495910645
15.122077714266563,-0.1083360016345977,-0.8842560052871704,0.3645359873771667,-24.65749931335449,-21.787500381469727,17.517499923706055
15.142294395702748,-0.1007720008492469,-0.9201239943504332,0.3801519870758056,-27.895000457763672,-21.0,18.67250061035156
15.162511077138934,-0.0919879972934722,-0.9506239891052246,0.387472003698349,-26.6875,-20.52750015258789,18.40999984741211
15.182727758575119,-0.0934519991278648,-0.9513559937477112,0.3916199803352356,-22.399999618530277,-21.21000099182129,16.712499618530273
15.202944440011304,-0.1119959950447082,-0.9372040033340454,0.3974759876728058,-18.462499618530277,-22.225000381469727,15.645000457763672
15.22316112144749,-0.1371279954910278,-0.9118279814720154,0.391864001750946,-16.065000534057617,-23.239999771118164,15.609999656677246
15.243377802883675,-0.157379999756813,-0.8801079988479614,0.3964999914169311,-16.047500610351562,-24.167499542236328,16.99250030517578
15.26359448431986,-0.1568920016288757,-0.8661999702453613,0.3974759876728058,-18.795000076293945,-24.9375,19.512500762939453
15.283811165756045,-0.1444479972124099,-0.8764479756355286,0.3872279822826385,-22.17250061035156,-24.53499984741211,21.770000457763672
15.30402784719223,-0.1056519970297813,-0.9030439853668212,0.3652679920196533,-24.622499465942383,-22.78499984741211,21.21000099182129
15.324244528628416,-0.0785679966211319,-0.8996279835700989,0.3672199845314026,-25.497499465942383,-20.299999237060547,19.26749992370605
15.344461210064601,-0.0817399993538856,-0.8947479724884033,0.3574599921703338,-25.357500076293945,-17.97249984741211,16.065000534057617
15.364677891500786,-0.0790559947490692,-0.8827919960021973,0.3642919957637787,-24.97249984741211,-16.852500915527344,11.44499969482422
15.384894572936972,-0.1027240008115768,-0.8832799792289734,0.370635986328125,-24.97249984741211,-15.34749984741211,6.177500247955322
15.405111254373157,-0.1129719987511634,-0.8832799792289734,0.3899119794368744,-24.43000030517578,-13.789999961853027,1.399999976158142
15.425327935809342,-0.1361519992351532,-0.8898679614067078,0.4038199782371521,-23.32749938964844,-12.162500381469728,-3.202500104904175
15.445544617245528,-0.1410319954156875,-0.8893799781799316,0.4138239920139313,-21.700000762939453,-10.482500076293944,-6.84250020980835
15.465761298681713,-0.1437159925699234,-0.913047969341278,0.4052839875221252,-20.51000022888184,-7.034999847412109,-9.239999771118164
15.485977980117898,-0.1690919995307922,-0.9215880036354064,0.4028439819812774,-17.517499923706055,-3.6575000286102295,-11.44499969482422
15.506194661554083,-0.2091079950332641,-0.9123159646987916,0.4123599827289581,-14.052499771118164,-1.5225000381469729,-13.475000381469728
15.526411342990269,-0.244731992483139,-0.8910880088806152,0.427975982427597,-10.8149995803833,-0.0350000001490116,-15.260000228881836
15.546628024426454,-0.2771840095520019,-0.8771799802780151,0.4418839812278747,-8.609999656677246,1.3650000095367432,-16.22249984741211
15.56684470586264,-0.3003639876842499,-0.8637599945068359,0.4365159869194031,-7.0,2.134999990463257,-15.994999885559082
15.587061387298824,-0.2827959954738617,-0.8823039531707764,0.4089439809322357,-7.71750020980835,2.502500057220459,-13.877500534057615
15.60727806873501,-0.2195999920368194,-0.9547719955444336,0.3681959807872772,-11.480000495910645,6.510000228881836,-8.662500381469727
15.627494750171195,-0.1676279902458191,-1.06359601020813,0.2727919816970825,-13.6850004196167,12.827500343322754,-2.555000066757202
15.64771143160738,-0.1805599927902221,-1.3529800176620483,0.143227994441986,-14.227499961853027,18.462499618530277,9.55500030517578
15.667928113043565,-0.1066280007362365,-1.639923930168152,0.1590880006551742,-1.715000033378601,17.9375,35.10499954223633
15.68814479447975,-0.095891997218132,-1.3966559171676636,0.1998360008001327,32.147499084472656,8.522500038146973,52.20249938964844
15.708361475915936,-0.0868639945983886,-1.0067440271377563,0.2418039888143539,57.57500076293945,4.602499961853027,40.6349983215332
15.728578157352121,-0.0495319999754428,-0.7834839820861816,0.2339959889650344,61.38999938964844,10.56999969482422,-2.625
15.748794838788307,0.0004879999905824,-0.9533079862594604,0.1737279891967773,46.39250183105469,11.725000381469728,-43.29500198364258
15.769011520224492,0.1678719967603683,-1.1309399604797363,0.0814960002899169,38.77999877929688,4.409999847412109,-58.57250213623047
15.789228201660677,0.3430639803409576,-1.1411880254745483,0.0600240007042884,38.622501373291016,1.399999976158142,-56.26250076293945
15.809444883096862,0.2415599972009658,-1.0623760223388672,0.0688079968094825,41.42250061035156,3.255000114440918,-47.82749938964844
15.829661564533048,0.0973559990525245,-0.9242720007896424,0.2110600024461746,42.192501068115234,-8.452500343322754,-38.709999084472656
15.849878245969233,0.0541680008172988,-0.8493639826774597,0.2947520017623901,34.52750015258789,-25.497499465942383,-36.62749862670898
15.870094927405418,0.0617319978773593,-0.818619966506958,0.3274479806423187,21.13999938964844,-32.35750198364258,-43.907501220703125
15.890311608841603,0.1090679988265037,-0.856440007686615,0.3372080028057098,0.699999988079071,-31.56999969482422,-47.31999969482422
15.910528290277789,0.1559159904718399,-1.0016199350357056,0.281819999217987,-7.630000114440918,-26.40749931335449,-37.432498931884766
15.930744971713974,0.143227994441986,-1.0379760265350342,0.2630319893360138,6.125,-27.94750022888184,-31.832500457763672
15.95096165315016,0.1942239999771118,-0.8842560052871704,0.2613239884376526,20.09000015258789,-29.627500534057617,-29.5575008392334
15.971178334586345,0.23887600004673,-0.7515199780464172,0.1951999962329864,9.69499969482422,-26.739999771118164,-24.01000022888184
15.99139501602253,0.226187989115715,-0.782263994216919,0.206179991364479,-9.835000038146973,-22.049999237060547,-16.3799991607666
16.011611697458715,0.1998360008001327,-0.8903560042381287,0.285968005657196,-14.332500457763672,-20.09000015258789,-11.917500495910645
16.0318283788949,0.1576239913702011,-1.0040600299835205,0.3598999977111816,-5.337500095367432,-22.75,-11.619999885559082
16.052045060331086,0.1183400005102157,-1.046272039413452,0.3962559998035431,11.637499809265137,-25.09499931335449,-13.072500228881836
16.07226174176727,0.0875959992408752,-1.0084519386291504,0.4304159879684448,25.53249931335449,-27.229999542236328,-12.862500190734863
16.092478423203456,0.1061399951577186,-0.8996279835700989,0.3955239951610565,32.07749938964844,-27.59749984741211,-12.1274995803833
16.11269510463964,0.1376159936189651,-0.7578639984130859,0.3364759981632232,25.287500381469727,-25.95249938964844,-7.227499961853027
16.132911786075827,0.1876360028982162,-0.7283399701118469,0.317931979894638,5.6875,-23.55500030517578,1.225000023841858
16.153128467512012,0.2049599885940551,-0.8193519711494446,0.3584359884262085,-7.769999980926514,-20.125,7.804999828338623
16.173345148948197,0.1751919984817505,-0.9330559968948364,0.3916199803352356,-7.559999942779541,-18.899999618530277,10.149999618530272
16.193561830384382,0.1466439962387085,-1.0172359943389893,0.3969880044460296,1.995000004768372,-21.15749931335449,8.225000381469727
16.213778511820568,0.1310279965400695,-0.9967399835586548,0.403575986623764,12.25,-25.5674991607666,4.637499809265137
16.233995193256753,0.0944279953837394,-0.9191479682922364,0.3645359873771667,11.9350004196167,-30.8700008392334,4.480000019073486
16.25421187469294,0.0448959991335868,-0.8071519732475281,0.3725879788398742,4.130000114440918,-35.36750030517578,7.595000267028809
16.274428556129124,0.1141919940710067,-0.8049559593200684,0.3862519860267639,-5.96750020980835,-41.98250198364258,14.47249984741211
16.29464523756531,0.2034959942102432,-0.8073959946632385,0.3564839959144592,-7.210000038146973,-39.11249923706055,19.82749938964844
16.314861919001494,0.2981680035591125,-0.8752279877662659,0.2813319861888885,-14.4375,-33.599998474121094,22.3125
16.33507860043768,0.3821039795875549,-0.9757559895515442,0.2437559962272644,-19.9325008392334,-27.755001068115234,19.145000457763672
16.355295281873865,0.3313519954681396,-1.016260027885437,0.3069519996643066,-17.045000076293945,-27.3700008392334,11.024999618530272
16.37551196331005,0.2108159959316253,-0.9703879952430724,0.3933279812335968,-14.017499923706056,-33.23250198364258,2.1700000762939453
16.395728644746235,0.1642120033502578,-0.8903560042381287,0.3940599858760834,-15.574999809265137,-36.75,-1.9600000381469729
16.41594532618242,0.1981279999017715,-0.8315519690513611,0.3169559836387634,-13.667500495910645,-35.665000915527344,2.1700000762939453
16.436162007618606,0.2283839881420135,-0.8110559582710266,0.2376559972763061,-8.907500267028809,-29.942501068115234,13.982500076293944
16.45637868905479,0.205935999751091,-0.8657119870185852,0.260591983795166,-6.737500190734863,-24.045000076293945,24.6924991607666
16.476595370490976,0.1734839975833892,-0.9191479682922364,0.3694159984588623,-5.302500247955322,-23.4325008392334,25.795000076293945
16.49681205192716,0.1610399931669235,-0.9096319675445556,0.4518879950046539,-1.6100000143051147,-22.81999969482422,20.545000076293945
16.517028733363347,0.2386319935321808,-0.8130080103874207,0.4145559966564178,-0.8924999833106995,-10.517499923706056,13.369999885559082
16.537245414799532,0.2588839828968048,-0.814471960067749,0.3669759929180145,-5.425000190734863,-3.797500133514404,13.49250030517578
16.557462096235717,0.224480003118515,-0.8779119849205017,0.3479439914226532,-7.980000019073486,-0.9449999928474426,15.75
16.577678777671903,0.1700679957866668,-0.9250040054321288,0.3925960063934326,-6.947500228881836,-2.765000104904175,15.3125
16.597895459108088,0.171775996685028,-0.9081679582595824,0.420412003993988,-8.032500267028809,-6.807499885559082,10.517499923706056
16.618112140544273,0.2588839828968048,-0.9027999639511108,0.4169960021972656,-13.107500076293944,-1.8725000619888303,7.139999866485596
16.63832882198046,0.3491639792919159,-0.9086560010910034,0.379175990819931,-18.252500534057617,7.787499904632568,6.230000019073486
16.658545503416644,0.3789319992065429,-0.9637999534606934,0.2552239894866943,-16.1875,19.0575008392334,7.664999961853027
16.67876218485283,0.3272039890289306,-1.213168025016785,0.1232199966907501,-13.230000495910645,26.950000762939453,12.774999618530272
16.698978866289014,0.0685639977455139,-1.6643239259719849,0.3459919989109039,-7.472499847412109,31.86750030517578,15.207500457763672
16.7191955477252,-0.1149239987134933,-1.818287968635559,0.5765720009803772,6.772500038146973,20.020000457763672,-10.220000267028809
16.739412229161385,-0.0290360003709793,-1.29368793964386,0.2461960017681121,33.82749938964844,14.227499961853027,-43.33000183105469
16.75962891059757,0.1073599979281425,-0.7400519847869873,0.0456280000507831,32.79500198364258,13.789999961853027,-36.067501068115234
16.779845592033755,0.1834879964590072,-0.5755959749221802,0.0514839999377727,10.762499809265137,5.704999923706055,-4.427500247955322
16.80006227346994,0.2525399923324585,-0.5572959780693054,0.0058559998869895,1.5575000047683716,12.704999923706056,26.46000099182129
16.820278954906126,0.1988599896430969,-0.7229719758033752,0.0146399997174739,-9.345000267028809,42.47249984741211,45.56999969482422
16.84049563634231,0.0080519998446106,-1.0948280096054075,0.1461559981107711,-35.61249923706055,59.97249984741211,39.51499938964844
16.860712317778496,-0.0607559978961944,-1.3556640148162842,0.3267160058021545,-36.540000915527344,51.69499969482422,17.342500686645508
16.88092899921468,-0.0807639956474304,-1.3217480182647705,0.285968005657196,2.0824999809265137,53.91749954223633,-7.139999866485596
16.901145680650867,-0.033671997487545,-1.0482239723205566,0.1407880038022995,32.095001220703125,63.84000015258789,-19.354999542236328
16.921362362087052,0.0402599982917308,-0.9545279741287231,0.1039439961314201,22.854999542236328,71.75,-12.984999656677246
16.941579043523237,0.0751519948244094,-0.9064599871635436,0.1246839985251426,2.432500123977661,74.30500030517578,-2.6600000858306885
16.961795724959423,0.047580000013113,-0.9354959726333618,0.1700679957866668,-19.862499237060547,72.625,6.369999885559082
16.982012406395608,0.0029279999434947,-1.0452959537506104,0.2039839923381805,-32.00749969482422,72.23999786376953,9.677499771118164
17.002229087831793,-0.0378200002014637,-1.1043440103530884,0.2393639981746673,-24.51749992370605,76.44000244140625,5.652500152587891
17.02244576926798,-0.0351359993219375,-1.0711599588394165,0.2500999867916107,-7.385000228881836,82.89749908447266,-2.012500047683716
17.042662450704164,-0.0126879997551441,-0.9716079831123352,0.2283839881420135,6.142499923706055,89.56500244140625,-7.472499847412109
17.06287913214035,0.0141519997268915,-0.8825479745864868,0.2066679894924163,8.470000267028809,92.75,-8.3125
17.083095813576534,0.0478239990770816,-0.8498519659042358,0.2005679905414581,3.5174999237060547,93.41500091552734,-7.71750020980835
17.10331249501272,0.0509959980845451,-0.8613199591636658,0.1973959952592849,0.0175000000745058,95.74250030517578,-9.765000343322754
17.123529176448905,0.0344039984047412,-0.9184159636497498,0.1761679947376251,-2.309999942779541,99.03250122070312,-16.975000381469727
17.14374585788509,0.028303999453783,-0.9206119775772096,0.1698240041732788,-0.612500011920929,102.9000015258789,-22.0674991607666
17.163962539321275,0.0446520000696182,-0.9049959778785706,0.1622599959373474,1.399999976158142,106.06749725341795,-27.42250061035156
17.18417922075746,0.0592919997870922,-0.876691997051239,0.1527439951896667,3.307500123977661,109.1999969482422,-32.00749969482422
17.204395902193646,0.0531919971108436,-0.8747400045394897,0.1168759986758232,3.9375,110.4250030517578,-35.647499084472656
17.22461258362983,0.0129319997504353,-0.8679080009460449,0.0941839963197708,4.322500228881836,108.86750030517578,-38.77999877929688
17.244829265066016,-0.0380639992654323,-0.8557080030441284,0.0812520012259483,3.884999990463257,105.48999786376952,-40.897499084472656
17.2650459465022,-0.0551439970731735,-0.8176440000534058,0.105163998901844,2.257499933242798,103.31999969482422,-42.997501373291016
17.285262627938387,-0.0102479998022317,-0.8064199686050415,0.1503039896488189,-2.799999952316284,102.9875030517578,-47.022499084472656
17.305479309374572,-0.0085399998351931,-0.8866959810256958,0.1117519959807396,-9.345000267028809,102.97000122070312,-50.20750045776367
17.325695990810758,-0.1115079969167709,-1.046272039413452,0.0414799973368644,-17.167499542236328,95.21749877929688,-50.92499923706055
17.345912672246943,-0.056607998907566,-1.2270759344100952,0.1554279923439026,-26.0575008392334,79.69499969482422,-50.29500198364258
17.366129353683128,0.1312720030546188,-1.3329719305038452,0.2601040005683899,-24.552499771118164,76.24749755859375,-48.685001373291016
17.386346035119313,0.2354599982500076,-1.2473279237747192,0.2437559962272644,-11.2524995803833,88.93499755859375,-39.98749923706055
17.4065627165555,0.2230159938335418,-1.0604239702224731,0.1234639957547187,-3.237499952316284,98.62999725341795,-27.15999984741211
17.426779397991684,0.1683599948883056,-0.9049959778785706,0.0156159996986389,-12.162500381469728,104.125,-18.637500762939453
17.44699607942787,0.0907679945230484,-0.9040200114250184,-0.0500199981033802,-33.915000915527344,106.90750122070312,-16.065000534057617
17.467212760864054,0.0395279973745346,-1.0557879209518433,0.042943999171257,-44.76499938964844,104.44000244140624,-19.915000915527344
17.48742944230024,0.0290360003709793,-1.142408013343811,0.2259439975023269,-34.317501068115234,99.88999938964844,-28.087499618530277
17.507646123736425,0.0270840004086494,-1.2004799842834473,0.3781999945640564,-14.664999961853027,95.86499786376952,-34.73749923706055
17.52786280517261,0.0195199996232986,-1.1624159812927246,0.3708800077438354,8.487500190734863,94.90250396728516,-39.28749847412109
17.548079486608795,0.0253759995102882,-1.00381600856781,0.2683999836444855,24.43000030517578,93.46749877929688,-39.98749923706055
17.56829616804498,0.028303999453783,-0.8125199675559998,0.1790959984064102,21.227500915527344,92.12000274658205,-33.407501220703125
17.588512849481166,0.0749079957604408,-0.7195559740066528,0.1564040035009384,-1.190000057220459,86.74749755859375,-22.592500686645508
17.60872953091735,0.1261480003595352,-0.7359039783477783,0.185928001999855,-22.592500686645508,84.1050033569336,-10.779999732971191
17.628946212353537,0.1554279923439026,-0.8164240121841431,0.1886119991540908,-34.09000015258789,86.83499908447266,-0.1225000023841857
17.649162893789722,0.1800719946622848,-0.9040200114250184,0.1978839933872223,-36.557498931884766,90.58000183105467,8.119999885559082
17.669379575225907,0.1951999962329864,-0.9755119681358336,0.2076440006494522,-35.45500183105469,92.26000213623048,13.020000457763672
17.689596256662092,0.2249680012464523,-1.0255320072174072,0.1847079992294311,-31.46500015258789,90.33499908447266,10.90250015258789
17.709812938098278,0.2552239894866943,-1.0367560386657717,0.1015039980411529,-24.762500762939453,86.02999877929688,1.2599999904632568
17.730029619534463,0.218868002295494,-0.9806360006332396,0.0341599993407726,-11.532500267028809,79.76499938964844,-7.612500190734863
17.750246300970648,0.1829999983310699,-0.9596520066261292,0.0212280005216598,-9.414999961853027,76.35250091552734,-9.15250015258789
17.770462982406833,0.1483519971370697,-0.9315919876098632,0.0441639982163906,-9.852499961853027,71.94249725341797,-9.0649995803833
17.79067966384302,0.1200480014085769,-0.9835639595985411,0.0573399998247623,-13.05500030517578,69.68499755859375,-5.355000019073486
17.810896345279204,0.142984002828598,-0.9869799613952636,0.0788119956851005,-9.677499771118164,66.97250366210938,-0.3675000071525574
17.83111302671539,0.1556719988584518,-0.965507984161377,0.1161440014839172,-2.2225000858306885,64.71500396728516,5.232500076293945
17.851329708151574,0.1683599948883056,-0.9567239880561828,0.1737279891967773,1.8725000619888303,62.58000183105469,8.662500381469727
17.87154638958776,0.1793399900197982,-0.9750239849090576,0.1634799987077713,3.237499952316284,60.147499084472656,9.9399995803833
17.891763071023945,0.157379999756813,-1.0052800178527832,0.1300520002841949,5.110000133514404,56.73500061035156,10.727499961853027
17.91197975246013,0.0670999959111213,-1.1319159269332886,0.2049599885940551,-1.190000057220459,50.17250061035156,8.399999618530273
17.932196433896316,0.0517279990017414,-1.327359914779663,0.2576639950275421,-13.545000076293944,47.70500183105469,-5.302500247955322
17.9524131153325,0.20032399892807,-1.28929603099823,0.1727519929409027,-9.1875,54.21500015258789,-27.86000061035156
17.972629796768686,0.2869440019130707,-1.0474920272827148,0.1112639978528022,6.457499980926514,65.59000396728516,-38.744998931884766
17.99284647820487,0.1883679926395416,-0.933299958705902,0.0880839973688125,11.34000015258789,69.31749725341797,-29.137500762939453
18.013063159641057,-0.0307439994066953,-0.8803519606590271,0.0975999981164932,12.162500381469728,64.87249755859375,-13.59749984741211
18.033279841077242,-0.1544519960880279,-0.9040200114250184,0.0971119999885559,7.962500095367432,58.57250213623047,-4.130000114440918
18.053496522513427,-0.183243989944458,-0.921343982219696,0.0971119999885559,10.517499923706056,58.2400016784668,-6.369999885559082
18.073713203949612,-0.1666519939899444,-0.9799039959907532,0.1212679967284202,18.09499931335449,61.18000030517578,-13.614999771118164
18.093929885385798,-0.1107759997248649,-1.0574959516525269,0.1600639969110489,29.732500076293945,68.73999786376953,-21.47249984741211
18.114146566821983,-0.0827159956097602,-1.1555839776992798,0.1949559897184372,39.8125,75.45999908447266,-24.482500076293945
18.13436324825817,-0.0917439982295036,-1.1941360235214231,0.2357039898633957,49.0525016784668,78.75,-24.482500076293945
18.154579929694354,-0.1434720009565353,-1.161195993423462,0.2601040005683899,59.39500045776367,82.07499694824219,-25.252500534057617
18.17479661113054,-0.1686040014028549,-1.0850679874420166,0.2564440071582794,64.8375015258789,82.49500274658203,-26.337499618530277
18.195013292566724,-0.1495719999074936,-1.0528600215911863,0.2669360041618347,62.317501068115234,83.09000396728516,-23.78249931335449
18.21522997400291,-0.0905239954590797,-0.9860039949417114,0.2664479911327362,57.505001068115234,86.0824966430664,-19.75749969482422
18.235446655439095,-0.0334279984235763,-0.977952003479004,0.2613239884376526,48.317501068115234,91.9800033569336,-16.520000457763672
18.25566333687528,0.0134199997410178,-0.9511119723320008,0.2571759819984436,41.82500076293945,98.6999969482422,-17.360000610351562
18.275880018311465,0.0409919992089271,-0.901579976081848,0.2522960007190704,34.439998626708984,103.19750213623048,-18.042499542236328
18.29609669974765,0.032940000295639,-0.8581479787826538,0.2342399954795837,24.86750030517578,106.45249938964844,-16.799999237060547
18.316313381183836,-0.0082959998399019,-0.835211992263794,0.2134999930858612,14.90999984741211,107.30999755859376,-14.84000015258789
18.33653006262002,-0.0924759954214096,-0.8030039668083191,0.2252119928598404,0.4200000166893005,105.89250183105467,-14.157500267028809
18.356746744056206,-0.1190719977021217,-0.8359439969062805,0.2471719980239868,-6.212500095367432,104.9124984741211,-14.227499961853027
18.37696342549239,-0.1337119936943054,-0.8127639889717102,0.2910920083522796,-5.565000057220459,102.07749938964844,-17.219999313354492
18.397180106928577,-0.1439599990844726,-0.7668919563293457,0.334524005651474,-2.450000047683716,95.69000244140624,-21.64750099182129
18.417396788364762,-0.1383479982614517,-0.7056480050086975,0.3684400022029876,-2.625,87.56999969482422,-25.84749984741211
