Time (seconds),acc_x,acc_y,acc_z,gyro_x,gyro_y,gyro_z
0.020305251064703465,0.1417640000581741,-0.7600600123405457,0.6414759755134583,-1.3125,-0.4025000035762787,-0.4375
0.04061050212940693,0.1395680010318756,-0.7671359777450562,0.6353759765625,-1.662500023841858,-0.1225000023841857,-0.1749999970197677
0.0609157531941104,0.1371279954910278,-0.7703079581260681,0.6361079812049866,-1.190000057220459,0.1225000023841857,-0.1749999970197677
0.08122100425881386,0.1383479982614517,-0.7695760130882263,0.6392799615859985,-0.7350000143051147,0.3499999940395355,-0.4550000131130218
0.10152625532351732,0.1415199935436248,-0.7668919563293457,0.6409879922866821,-0.4375,0.612500011920929,-0.8224999904632568
0.12183150638822078,0.1478639990091323,-0.7603039741516113,0.6458680033683777,-0.2275000065565109,0.9975000023841858,-1.1200000047683716
0.14213675745292426,0.1525000035762787,-0.7566440105438232,0.6509919762611389,-0.5425000190734863,1.5049999952316284,-1.3300000429153442
0.16244200851762772,0.1564040035009384,-0.7607919573783875,0.6539199948310852,-0.9449999928474426,1.5750000476837158,-1.5924999713897705
0.18274725958233118,0.1566479951143264,-0.7690879702568054,0.6487959623336792,-1.1549999713897705,1.2599999904632568,-2.0299999713897705
0.20305251064703464,0.1483519971370697,-0.7705519795417786,0.6414759755134583,-0.9275000095367432,0.4375,-2.380000114440918
0.2233577617117381,0.1420079916715622,-0.7659159898757935,0.6373279690742493,-0.7350000143051147,-0.4900000095367431,-2.502500057220459
0.24366301277644156,0.1385920047760009,-0.7639639973640442,0.6317160129547119,-0.7350000143051147,-0.7524999976158142,-2.134999990463257
0.263968263841145,0.138835996389389,-0.761523962020874,0.6309840083122253,-0.5074999928474426,-0.4900000095367431,-1.4874999523162842
0.2842735149058485,0.1381039917469024,-0.7605479955673218,0.6375719904899597,-0.7875000238418579,0.0350000001490116,-0.875
0.304578765970552,0.1422519981861114,-0.7629879713058472,0.6431840062141418,-1.3300000429153442,0.5425000190734863,-0.4375
0.3248840170352555,0.1490840017795562,-0.7644519805908203,0.6463559865951538,-1.5924999713897705,0.5774999856948853,0.0175000000745058
0.345189268099959,0.1564040035009384,-0.7634760141372681,0.6463559865951538,-1.837499976158142,0.1574999988079071,0.7875000238418579
0.36549451916466247,0.1537199914455413,-0.7671359777450562,0.6434279680252075,-2.327500104904175,-0.4900000095367431,1.4700000286102295
0.38579977022936596,0.1459119915962219,-0.7693319916725159,0.6407439708709717,-2.9574999809265137,-1.3650000095367432,1.662500023841858
0.40610502129406945,0.1444479972124099,-0.7695760130882263,0.6373279690742493,-2.432500123977661,-0.9275000095367432,1.4350000619888306
0.42641027235877293,0.1446920037269592,-0.7690879702568054,0.6365959644317627,-1.7324999570846558,-0.5425000190734863,1.1375000476837158
0.4467155234234764,0.1468880027532577,-0.7681120038032532,0.6373279690742493,-1.3825000524520874,-0.3149999976158142,0.8050000071525574
0.4670207744881799,0.1456679999828338,-0.7700639963150024,0.6353759765625,-1.2599999904632568,-0.0874999985098838,0.6650000214576721
0.4873260255528834,0.1466439962387085,-0.7742120027542114,0.6297639608383179,-0.8400000333786011,0.2100000083446502,0.332500010728836
0.5076312766175869,0.1398119926452636,-0.7727479934692383,0.627079963684082,-0.0350000001490116,0.2450000047683715,-0.2450000047683715
0.5279365276822904,0.1366399973630905,-0.7700639963150024,0.6290320158004761,0.1225000023841857,0.4724999964237213,-0.9449999928474426
0.5482417787469939,0.1412760019302368,-0.7725039720535278,0.6290320158004761,-0.1924999952316284,1.277500033378601,-1.0325000286102295
0.5685470298116974,0.1422519981861114,-0.7746999859809875,0.6295199990272522,-0.2975000143051147,2.0824999809265137,-0.5249999761581421
0.5888522808764008,0.1415199935436248,-0.7771399617195129,0.6326919794082642,-0.2275000065565109,2.134999990463257,-0.1225000023841857
0.6091575319411043,0.1446920037269592,-0.7786039710044861,0.6326919794082642,-0.1924999952316284,1.6974999904632568,-0.0350000001490116
0.6294627830058078,0.1442039906978607,-0.7768959999084473,0.6324479579925537,-0.262499988079071,1.1725000143051147,-0.2100000083446502
0.6497680340705113,0.1444479972124099,-0.7756760120391846,0.6351320147514343,-0.3675000071525574,0.9449999928474426,-0.4900000095367431
0.6700732851352148,0.1415199935436248,-0.7734799981117249,0.6351320147514343,-0.332500010728836,0.9800000190734864,-0.6474999785423279
0.6903785361999183,0.140299990773201,-0.770796000957489,0.6317160129547119,-0.2975000143051147,0.9800000190734864,-0.5249999761581421
0.7106837872646218,0.1366399973630905,-0.7722600102424622,0.6290320158004761,-0.2275000065565109,0.7699999809265137,-0.4550000131130218
0.7309890383293253,0.1427399963140487,-0.7700639963150024,0.6300079822540283,-0.2275000065565109,0.4550000131130218,-0.2450000047683715
0.7512942893940288,0.1476199924945831,-0.7717719674110413,0.6307399868965149,-0.1400000005960464,0.262499988079071,-0.0350000001490116
0.7715995404587322,0.1466439962387085,-0.7732359766960144,0.6346439719200134,0.0700000002980232,0.1050000041723251,0.0175000000745058
0.7919047915234357,0.1405439972877502,-0.773967981338501,0.6368399858474731,0.5249999761581421,0.1050000041723251,-0.1924999952316284
0.8122100425881392,0.1368840038776397,-0.7732359766960144,0.6339119672775269,1.1024999618530271,0.0350000001490116,-0.6825000047683716
0.8325152936528427,0.1363959908485412,-0.7737239599227905,0.6300079822540283,1.1549999713897705,-0.1050000041723251,-0.9975000023841858
0.8528205447175462,0.1383479982614517,-0.7744559645652771,0.6304959654808044,1.190000057220459,0.2450000047683715,-1.1024999618530271
0.8731257957822497,0.1454239934682846,-0.7773839831352234,0.6341559886932373,1.6449999809265137,0.699999988079071,-1.277500033378601
0.8934310468469532,0.152988001704216,-0.782263994216919,0.636352002620697,2.2925000190734863,0.5774999856948853,-1.4700000286102295
0.9137362979116567,0.1527439951896667,-0.7764079570770264,0.6439160108566284,2.484999895095825,0.0874999985098838,-1.6449999809265137
0.9340415489763602,0.1456679999828338,-0.770796000957489,0.6448919773101807,1.715000033378601,-0.262499988079071,-1.8550000190734863
0.9543468000410636,0.1439599990844726,-0.7700639963150024,0.6390359997749329,1.225000023841858,-0.2100000083446502,-1.924999952316284
0.9746520511057671,0.147376000881195,-0.7681120038032532,0.6304959654808044,1.1549999713897705,0.0874999985098838,-1.4874999523162842
0.9949573021704706,0.152988001704216,-0.7612800002098083,0.6231759786605835,1.2949999570846558,0.8400000333786011,0.2275000065565109
1.015262553235174,0.1576239913702011,-0.761523962020874,0.6256160140037537,1.1549999713897705,0.9275000095367432,0.7524999976158142
1.0355678042998775,0.1549399942159652,-0.7595719695091248,0.6326919794082642,1.0850000381469729,0.699999988079071,0.8575000166893005
1.055873055364581,0.1478639990091323,-0.7515199780464172,0.6368399858474731,1.5575000047683716,0.7524999976158142,1.225000023841858
1.0761783064292845,0.1410319954156875,-0.7622559666633606,0.644648015499115,1.4524999856948853,0.5249999761581421,1.8025000095367432
1.096483557493988,0.134443998336792,-0.7676239609718323,0.6529439687728882,0.6650000214576721,0.2275000065565109,1.5924999713897705
1.1167888085586914,0.1410319954156875,-0.7778719663619995,0.6524559855461121,-0.0525000020861625,-0.5600000023841858,0.5249999761581421
1.137094059623395,0.1500599980354309,-0.7778719663619995,0.6483079791069031,0.9800000190734864,-1.4700000286102295,-0.5774999856948853
1.1573993106880984,0.152988001704216,-0.7722600102424622,0.6453799605369568,1.9600000381469729,-2.240000009536743,-0.7524999976158142
1.177704561752802,0.1461559981107711,-0.7629879713058472,0.6387919783592224,1.680000066757202,-2.5374999046325684,-0.0525000020861625
1.1980098128175054,0.1383479982614517,-0.761523962020874,0.6346439719200134,1.0499999523162842,-2.782500028610229,0.699999988079071
1.218315063882209,0.1332239955663681,-0.7620120048522949,0.6356199979782104,0.5600000023841858,-2.3975000381469727,1.2599999904632568
1.2386203149469124,0.134443998336792,-0.7673799991607666,0.6361079812049866,0.0175000000745058,-1.4524999856948853,1.5750000476837158
1.2589255660116159,0.140299990773201,-0.7717719674110413,0.6351320147514343,-0.3849999904632568,-0.6825000047683716,1.680000066757202
1.2792308170763194,0.147376000881195,-0.7742120027542114,0.6331799626350403,-0.2450000047683715,-0.9275000095367432,1.2424999475479126
1.2995360681410228,0.1493279933929443,-0.7693319916725159,0.6353759765625,0.3499999940395355,-1.5750000476837158,0.4724999964237213
1.3198413192057263,0.148839995265007,-0.7651839852333069,0.640500009059906,0.6299999952316284,-1.5399999618530271,0.1050000041723251
1.3401465702704298,0.1476199924945831,-0.7659159898757935,0.6392799615859985,0.8924999833106995,-1.0850000381469729,0.1225000023841857
1.3604518213351333,0.1476199924945831,-0.7664039731025696,0.6365959644317627,1.399999976158142,-0.4900000095367431,0.262499988079071
1.3807570723998368,0.147376000881195,-0.762499988079071,0.636352002620697,1.784999966621399,-0.0525000020861625,0.5425000190734863
1.4010623234645403,0.1476199924945831,-0.7634760141372681,0.6402559876441956,1.3825000524520874,0.1050000041723251,0.8575000166893005
1.4213675745292438,0.1493279933929443,-0.7671359777450562,0.6431840062141418,0.7350000143051147,-0.0350000001490116,0.8924999833106995
1.4416728255939473,0.1503039896488189,-0.7690879702568054,0.6453799605369568,0.8924999833106995,-0.262499988079071,0.4375
1.4619780766586508,0.1481079906225204,-0.7681120038032532,0.6453799605369568,0.7350000143051147,-0.1225000023841857,-0.2450000047683715
1.4822833277233542,0.1495719999074936,-0.7693319916725159,0.6400119662284851,0.3499999940395355,-0.1400000005960464,-0.2975000143051147
1.5025885787880577,0.1498159915208816,-0.7695760130882263,0.6348879933357239,0.4200000166893005,-0.2450000047683715,-0.2800000011920929
1.5228938298527612,0.1490840017795562,-0.7676239609718323,0.6356199979782104,0.5600000023841858,-0.1225000023841857,-0.1924999952316284
1.5431990809174647,0.148839995265007,-0.7661600112915039,0.6402559876441956,0.7699999809265137,0.0175000000745058,-0.1749999970197677
1.5635043319821682,0.1525000035762787,-0.7649399638175964,0.6429399847984314,0.8224999904632568,0.1225000023841857,-0.2100000083446502
1.5838095830468717,0.1507920026779174,-0.7632319927215576,0.6392799615859985,-0.0350000001490116,0.262499988079071,-0.3675000071525574
1.6041148341115752,0.1493279933929443,-0.7639639973640442,0.6380599737167358,-0.0700000002980232,0.1400000005960464,-0.5249999761581421
1.6244200851762787,0.148839995265007,-0.7646960020065308,0.6387919783592224,0.0350000001490116,0.1574999988079071,-0.699999988079071
1.6447253362409822,0.1495719999074936,-0.7627440094947815,0.6414759755134583,0.2100000083446502,0.4025000035762787,-0.699999988079071
1.6650305873056856,0.1481079906225204,-0.7617679834365845,0.6407439708709717,0.3149999976158142,0.8050000071525574,-0.6474999785423279
1.6853358383703891,0.148839995265007,-0.7607919573783875,0.6400119662284851,0.2975000143051147,0.9975000023841858,-0.6825000047683716
1.7056410894350926,0.1461559981107711,-0.7629879713058472,0.6385480165481567,0.0700000002980232,1.1024999618530271,-0.6650000214576721
1.7259463404997961,0.1451800018548965,-0.7659159898757935,0.640500009059906,-0.0525000020861625,0.9975000023841858,-0.612500011920929
1.7462515915644996,0.1449359953403473,-0.7693319916725159,0.6397680044174194,-0.0350000001490116,0.7350000143051147,-0.5950000286102295
1.766556842629203,0.1434720009565353,-0.7688440084457397,0.6383039951324463,0.0525000020861625,0.7875000238418579,-0.5074999928474426
1.7868620936939066,0.1437159925699234,-0.7673799991607666,0.640500009059906,0.1749999970197677,0.8400000333786011,-0.5950000286102295
1.80716734475861,0.1449359953403473,-0.7676239609718323,0.6414759755134583,0.0874999985098838,0.8400000333786011,-0.6650000214576721
1.8274725958233136,0.1476199924945831,-0.7671359777450562,0.642695963382721,-0.0350000001490116,0.6825000047683716,-0.5950000286102295
1.847777846888017,0.1454239934682846,-0.7683559656143188,0.6422079801559448,0.0874999985098838,0.5249999761581421,-0.4200000166893005
1.8680830979527205,0.1434720009565353,-0.7693319916725159,0.6412320137023926,0.3499999940395355,0.4200000166893005,-0.2975000143051147
1.888388349017424,0.142984002828598,-0.7676239609718323,0.642695963382721,0.5774999856948853,0.2975000143051147,-0.3149999976158142
1.9086936000821275,0.1446920037269592,-0.7659159898757935,0.6419639587402344,0.4724999964237213,0.3499999940395355,-0.262499988079071
1.928998851146831,0.1456679999828338,-0.76664799451828,0.639523983001709,0.1924999952316284,0.4025000035762787,-0.1574999988079071
1.9493041022115345,0.1451800018548965,-0.7671359777450562,0.6390359997749329,0.2800000011920929,0.3675000071525574,-0.0525000020861625
1.969609353276238,0.1459119915962219,-0.765671968460083,0.6385480165481567,0.4025000035762787,0.2100000083446502,-0.0525000020861625
1.9899146043409415,0.1456679999828338,-0.7632319927215576,0.6402559876441956,0.4200000166893005,0.1400000005960464,-0.0874999985098838
2.0102198554056447,0.147376000881195,-0.761523962020874,0.6402559876441956,0.4025000035762787,0.1574999988079071,-0.0350000001490116
2.030525106470348,0.1483519971370697,-0.7634760141372681,0.639523983001709,0.5074999928474426,0.0700000002980232,0.0874999985098838
2.0508303575350513,0.1493279933929443,-0.7637199759483337,0.6417199969291687,0.5074999928474426,0.0874999985098838,0.2450000047683715
2.0711356085997545,0.1485960036516189,-0.7651839852333069,0.6419639587402344,0.2275000065565109,0.2800000011920929,0.3849999904632568
2.091440859664458,0.1476199924945831,-0.7681120038032532,0.6383039951324463,0.2800000011920929,0.3149999976158142,0.4200000166893005
2.111746110729161,0.1456679999828338,-0.7668919563293457,0.6383039951324463,0.6650000214576721,0.0874999985098838,0.262499988079071
2.1320513617938643,0.1485960036516189,-0.76664799451828,0.6417199969291687,0.8575000166893005,-0.1924999952316284,0.0525000020861625
2.1523566128585676,0.1476199924945831,-0.7710399627685547,0.6424520015716553,0.4900000095367431,-0.1400000005960464,-0.0175000000745058
2.172661863923271,0.1556719988584518,-0.7703079581260681,0.647819995880127,0.332500010728836,-0.1050000041723251,-0.3149999976158142
2.192967114987974,0.1739719957113266,-0.7847039699554443,0.6688039898872375,-0.5425000190734863,0.8575000166893005,0.1225000023841857
2.2132723660526774,0.1876360028982162,-0.8261839747428894,0.6868599653244019,-1.9600000381469729,1.627500057220459,0.875
2.2335776171173807,0.1686040014028549,-0.9113399982452391,0.7034519910812378,-5.110000133514404,1.3825000524520874,4.585000038146973
2.253882868182084,0.1227319985628128,-1.0104039907455444,0.7241919636726379,-12.442500114440918,1.1024999618530271,12.529999732971191
2.274188119246787,0.1046760007739067,-1.0826280117034912,0.7451759576797485,-20.05500030517578,0.7524999976158142,19.512500762939453
2.2944933703114905,0.1300520002841949,-1.113371968269348,0.7600600123405457,-24.95499992370605,2.345000028610229,20.545000076293945
2.3147986213761937,0.1410319954156875,-1.0914119482040403,0.7742120027542114,-25.8125,4.514999866485596,18.74250030517578
2.335103872440897,0.1383479982614517,-1.048956036567688,0.7605479955673218,-24.02750015258789,4.304999828338623,17.219999313354492
2.3554091235056003,0.1439599990844726,-1.0116239786148071,0.7266319990158081,-23.747499465942383,2.5199999809265137,16.082500457763672
2.3757143745703035,0.1468880027532577,-0.9842959642410278,0.6932039856910706,-25.200000762939453,2.240000009536743,15.137499809265137
2.396019625635007,0.119559995830059,-0.961359977722168,0.6612399816513062,-26.862499237060547,3.237499952316284,14.682499885559082
2.41632487669971,0.085156001150608,-0.933788001537323,0.6356199979782104,-27.42250061035156,3.587500095367432,15.662500381469728
2.4366301277644133,0.0832040011882782,-0.9079239964485168,0.6204919815063477,-27.247499465942383,3.762500047683716,17.342500686645508
2.4569353788291166,0.0978439971804618,-0.8857199549674988,0.6048759818077087,-27.002500534057617,5.197500228881836,18.462499618530277
2.47724062989382,0.1054079979658126,-0.8635159730911255,0.5924319624900818,-27.002500534057617,7.367499828338623,19.28499984741211
2.497545880958523,0.1078479960560798,-0.8442400097846985,0.5755959749221802,-26.72249984741211,9.327500343322754,19.372499465942383
2.5178511320232264,0.08661999553442,-0.8361879587173462,0.5648599863052368,-26.75749969482422,10.5,18.917499542236328
2.5381563830879297,0.0690519958734512,-0.8417999744415283,0.5487560033798218,-27.790000915527344,11.357500076293944,18.602500915527344
2.558461634152633,0.0497759990394115,-0.8566839694976807,0.5255759954452515,-27.825000762939453,12.337499618530272,19.092500686645508
2.578766885217336,0.013663999736309,-0.8647359609603882,0.5292360186576843,-26.38999938964844,12.547499656677246,19.84499931335449
2.5990721362820395,0.0012199999764561,-0.8705919981002808,0.5360679626464844,-25.76000022888184,12.390000343322754,20.212499618530277
2.6193773873467427,0.0078079998493194,-0.8747400045394897,0.537775993347168,-26.162500381469727,13.107500076293944,19.809999465942383
2.639682638411446,0.0239119995385408,-0.8830359578132629,0.5202080011367798,-28.052499771118164,14.80500030517578,19.75749969482422
2.6599878894761493,0.0258639995008707,-0.8852319717407227,0.5011759996414185,-29.08500099182129,15.27750015258789,19.337499618530277
2.6802931405408525,0.0158599987626075,-0.8915759921073914,0.4836079776287079,-29.01499938964844,13.772500038146973,18.44499969482422
2.700598391605556,0.003171999938786,-0.8981639742851257,0.4748239815235138,-28.630001068115234,11.130000114440918,17.639999389648438
2.720903642670259,-0.0053679998964071,-0.9091439843177797,0.4799479842185974,-27.895000457763672,8.539999961853027,16.852500915527344
2.7412088937349623,-0.0148839997127652,-0.92085599899292,0.4831199944019317,-26.880001068115234,7.157500267028809,15.994999885559082
2.7615141447996656,-0.0234239995479583,-0.9281759858131408,0.473360002040863,-25.690000534057617,6.965000152587891,16.135000228881836
2.781819395864369,-0.0356239974498748,-0.915731966495514,0.4474959969520569,-21.50749969482422,4.777500152587891,15.505000114440918
2.802124646929072,-0.047580000013113,-0.9110959768295288,0.44896000623703,-19.6875,4.287499904632568,12.704999923706056
2.8224298979937754,-0.0495319999754428,-0.9501360058784484,0.4494479894638061,-18.602500915527344,4.900000095367432,10.46500015258789
2.8427351490584787,-0.0214719995856285,-0.9706319570541382,0.465063989162445,-15.399999618530272,5.897500038146973,8.960000038146973
2.863040400123182,-0.0312319993972778,-0.957211971282959,0.4728719890117645,-11.077500343322754,5.652500152587891,7.210000038146973
2.883345651187885,-0.0661239996552467,-0.9462319612503052,0.4684799909591675,-7.490000247955322,3.745000123977661,5.355000019073486
2.9036509022525885,-0.0592919997870922,-0.9508680105209352,0.4487159848213196,-4.199999809265137,3.884999990463257,3.132499933242798
2.9239561533172918,-0.0395279973745346,-0.9598959684371948,0.4467639923095703,-2.572499990463257,5.40749979019165,0.8575000166893005
2.944261404381995,-0.0412359982728958,-0.961847960948944,0.4594520032405853,-1.225000023841858,5.704999923706055,0.0874999985098838
2.9645666554466983,-0.0688079968094825,-0.9401319622993468,0.4550600051879883,3.884999990463257,3.3949999809265137,0.1050000041723251
2.9848719065114016,-0.0961359962821006,-0.9196360111236572,0.4496919810771942,8.942500114440918,-0.3149999976158142,-1.0674999952316284
3.005177157576105,-0.0963799953460693,-0.8876720070838928,0.4370039999485016,12.267499923706056,-2.6424999237060547,-2.625
3.025482408640808,-0.0888160020112991,-0.8427760004997253,0.4282200038433075,11.585000038146973,-3.377500057220459,-2.712500095367432
3.0457876597055114,-0.0724679976701736,-0.8259400129318237,0.3945479989051819,6.159999847412109,-4.09499979019165,-1.995000004768372
3.0660929107702146,-0.0702719986438751,-0.7886079549789429,0.3684400022029876,1.8550000190734863,-6.300000190734863,-0.0874999985098838
3.086398161834918,-0.0678320005536079,-0.7354159951210022,0.3677079975605011,-0.1050000041723251,-8.154999732971191,2.450000047683716
3.106703412899621,-0.0505079999566078,-0.6973519921302795,0.3577039837837219,-1.75,-9.414999961853027,3.745000123977661
3.1270086639643244,-0.0744199976325035,-0.656603991985321,0.3015840053558349,-6.965000152587891,-12.442500114440918,4.042500019073486
3.1473139150290277,-0.0797879993915557,-0.623420000076294,0.2537599802017212,-19.512500762939453,-18.707500457763672,4.672500133514404
3.167619166093731,-0.061243999749422,-0.6529439687728882,0.2747440040111542,-30.309999465942383,-19.19750022888184,7.875
3.187924417158434,-0.0561200007796287,-0.664900004863739,0.2986559867858886,-36.48749923706055,-23.13500022888184,17.954999923706055
3.2082296682231375,-0.0793000012636184,-0.6239079833030701,0.2906039953231811,-34.73749923706055,-28.524999618530277,21.962499618530277
3.2285349192878408,-0.06734399497509,-0.6012159585952759,0.3672199845314026,-16.274999618530273,-19.774999618530277,17.237499237060547
3.248840170352544,-0.0871080011129379,-0.6341559886932373,0.338916003704071,-10.307499885559082,-6.247499942779541,12.162500381469728
3.2691454214172473,-0.0807639956474304,-0.6668519973754883,0.2837719917297363,-17.09749984741211,-9.887499809265137,10.56999969482422
3.2894506724819506,-0.0380639992654323,-0.7605479955673218,0.2871879935264587,-24.482500076293945,-15.609999656677246,10.46500015258789
3.309755923546654,-0.0148839997127652,-0.8083719611167908,0.2871879935264587,-22.08500099182129,-13.422499656677246,7.490000247955322
3.330061174611357,-0.046604000031948,-0.8081279993057251,0.2840159833431244,-19.075000762939453,-9.55500030517578,2.555000066757202
3.3503664256760604,-0.0846679955720901,-0.826915979385376,0.3045119941234588,-20.51000022888184,-7.945000171661377,-3.762500047683716
3.3706716767407636,-0.1595759987831115,-0.8527799844741821,0.3259840011596679,-28.227500915527344,-7.787499904632568,-11.427499771118164
3.390976927805467,-0.1751919984817505,-0.9279319643974304,0.3128080070018768,-31.5,-8.855000495910645,-13.142499923706056
3.41128217887017,-0.1705559939146042,-0.9423279762268066,0.2937760055065155,-31.07999992370605,-8.71500015258789,-15.172499656677246
3.4315874299348734,-0.1461559981107711,-0.9501360058784484,0.2952399849891662,-29.1200008392334,-7.157500267028809,-18.34000015258789
3.4518926809995767,-0.1661639958620071,-0.9152439832687378,0.2439999878406524,-27.037500381469727,-6.422500133514404,-20.912500381469727
3.47219793206428,-0.056607998907566,-0.9454999566078186,0.2637639939785003,-37.06499862670898,-11.9350004196167,-23.450000762939453
3.4925031831289832,-0.1383479982614517,-1.048956036567688,0.2581520080566406,-32.130001068115234,0.0700000002980232,-24.395000457763672
3.5128084341936865,-0.1320039927959442,-1.1126400232315063,0.2522960007190704,-27.5625,-4.550000190734863,-22.732500076293945
3.5331136852583898,-0.147376000881195,-1.1189839839935305,0.2322880029678344,-23.34499931335449,-10.850000381469728,-18.042499542236328
3.553418936323093,-0.1315159946680069,-1.0745760202407837,0.261568009853363,-12.18000030517578,-12.897500038146973,-11.864999771118164
3.5737241873877963,-0.0905239954590797,-0.9877119660377502,0.2693759799003601,0.4200000166893005,-7.157500267028809,-9.204999923706056
3.5940294384524996,0.0229359995573759,-1.034559965133667,0.2845039963722229,1.5924999713897705,-1.1549999713897705,-7.402500152587891
3.614334689517203,0.0753960013389587,-1.044319987297058,0.2408279925584793,7.559999942779541,8.75,-4.637499809265137
3.634639940581906,0.056607998907566,-0.9781959652900696,0.2042279988527298,15.732500076293944,16.4325008392334,-2.240000009536743
3.6549451916466094,0.0563639998435974,-0.8613199591636658,0.1900759935379028,15.399999618530272,17.56999969482422,-4.865000247955322
3.6752504427113126,0.2705959975719452,-1.0306559801101685,0.1876360028982162,11.4975004196167,22.9950008392334,-0.0874999985098838
3.695555693776016,0.3394039869308471,-0.9777079820632936,0.1176079958677291,44.45000076293945,59.83250045776367,98.66500091552734
3.715860944840719,-0.3228119909763336,-0.8122760057449341,0.3537999987602234,105.24500274658205,109.09500122070312,87.90250396728516
3.7361661959054224,-0.0863759964704513,-0.7305359840393066,0.3484320044517517,56.45500183105469,58.97499847412109,-12.057499885559082
3.7564714469701257,0.0417240001261234,-0.7856799960136414,0.2757200002670288,-82.75749969482422,-44.747501373291016,-11.602499961853027
3.776776698034829,-0.1090679988265037,-0.9767319560050964,0.2810879945755005,-50.032501220703125,-1.1725000143051147,-11.970000267028809
3.7970819490995322,-0.0444080010056495,-0.9086560010910034,0.2461960017681121,-12.28499984741211,11.619999885559082,-17.27250099182129
3.8173872001642355,-0.0470919981598854,-0.9220759868621826,0.195932000875473,-20.177499771118164,5.477499961853027,-20.42250061035156
3.8376924512289388,-0.0441639982163906,-1.006011962890625,0.1905639916658401,-30.34499931335449,-0.2100000083446502,-18.059999465942383
3.857997702293642,-0.0214719995856285,-1.2002359628677368,0.1876360028982162,-31.97249984741211,1.662500023841858,-9.3100004196167
3.8783029533583453,0.0375759974122047,-1.2475719451904297,0.2664479911327362,-9.800000190734863,4.934999942779541,-5.302500247955322
3.8986082044230486,0.1090679988265037,-1.1099560260772705,0.3384279906749725,11.864999771118164,5.670000076293945,-7.297500133514404
3.918913455487752,0.1246839985251426,-1.0030839443206787,0.3340359926223755,15.732500076293944,4.53249979019165,-10.920000076293944
3.939218706552455,0.1320039927959442,-0.9896639585494996,0.3362320065498352,10.8149995803833,3.289999961853028,-14.577500343322754
3.9595239576171584,0.0778359994292259,-1.006500005722046,0.2942639887332916,6.632500171661377,3.5,-17.5
3.9798292086818616,0.099551998078823,-0.9730719923973083,0.2803559899330139,12.145000457763672,2.6075000762939453,-24.65749931335449
4.000134459746565,0.0641719996929168,-0.8200839757919312,0.293531984090805,17.045000076293945,6.579999923706055,-24.395000457763672
4.020439710811269,0.1066280007362365,-0.909875988960266,0.3067080080509186,12.75749969482422,10.46500015258789,-21.174999237060547
4.040744961875973,0.08661999553442,-0.8381400108337402,0.3150039911270141,9.852499961853027,9.082500457763672,-17.517499923706055
4.0610502129406765,0.0817399993538856,-0.8491199612617493,0.326227992773056,1.0850000381469729,5.565000057220459,-9.25749969482422
4.08135546400538,0.1115079969167709,-0.9091439843177797,0.3215920031070709,-2.9749999046325684,4.795000076293945,-3.3949999809265137
4.101660715070084,0.0871080011129379,-0.9350079894065856,0.3342799842357635,7.297500133514404,10.079999923706056,1.8725000619888303
4.121965966134788,0.0846679955720901,-0.9637999534606934,0.3350119888782501,8.662500381469727,8.592499732971191,3.8324999809265137
4.142271217199491,0.0712479948997497,-1.007964015007019,0.2962159812450409,8.645000457763672,10.727499961853027,3.447499990463257
4.162576468264195,0.0507519990205764,-1.0187000036239624,0.2884079813957214,16.537500381469727,17.02750015258789,-2.694999933242798
4.182881719328899,0.037331998348236,-1.0472480058670044,0.3206160068511963,17.219999313354492,19.915000915527344,-10.359999656677246
4.2031869703936025,0.0060999998822808,-1.0091840028762815,0.3193959891796112,10.920000076293944,17.114999771118164,-10.640000343322754
4.223492221458306,0.052947998046875,-0.961359977722168,0.3435519933700561,12.72249984741211,11.84749984741211,-16.274999618530273
4.24379747252301,0.0524599999189376,-0.9140239953994752,0.317931979894638,8.574999809265137,12.792500495910645,-13.59749984741211
4.264102723587714,0.0412359982728958,-0.8747400045394897,0.3325719833374023,7.349999904632568,8.925000190734863,-11.217499732971191
4.284407974652417,0.037331998348236,-0.8905999660491943,0.3357439935207367,0.1574999988079071,2.6075000762939453,-6.772500038146973
4.304713225717121,0.0309880003333091,-0.921343982219696,0.3764919936656952,-0.5249999761581421,6.387499809265137,-3.3600001335144043
4.325018476781825,0.0048799999058246,-0.8754720091819763,0.4635999798774719,-18.07749938964844,-6.195000171661377,-1.662500023841858
4.345323727846528,0.0773480013012886,-1.0596920251846311,0.2037400007247924,-39.74250030517578,-17.989999771118164,-2.712500095367432
4.365628978911232,0.0170799996703863,-0.8618080019950867,0.2866999804973602,-3.115000009536743,5.775000095367432,-7.315000057220459
4.385934229975936,0.0844239965081214,-1.081164002418518,0.284991979598999,-7.892499923706055,0.5774999856948853,-18.39249992370605
4.40623948104064,0.0405040010809898,-0.995519995689392,0.2964600026607513,7.804999828338623,11.00749969482422,-4.8125
4.426544732105343,0.0287919994443655,-0.9620919823646544,0.2881639897823334,10.779999732971191,8.382499694824219,-7.367499828338623
4.446849983170047,0.0304999984800815,-0.9625799655914308,0.293287992477417,8.4350004196167,7.612500190734863,-8.452500343322754
4.467155234234751,0.0300120003521442,-0.9777079820632936,0.2847479879856109,8.539999961853027,9.362500190734863,-8.487500190734863
4.487460485299454,0.0280600003898143,-0.9635559916496276,0.2915799915790558,11.34000015258789,10.692500114440918,-7.630000114440918
4.507765736364158,0.0224479995667934,-0.9528200030326844,0.297679990530014,12.28499984741211,11.392499923706056,-7.210000038146973
4.528070987428862,0.0202520005404949,-0.9374479651451112,0.310368001461029,11.270000457763672,10.517499923706056,-7.034999847412109
4.5483762384935655,0.0224479995667934,-0.9454999566078186,0.3111000061035156,8.154999732971191,8.837499618530273,-6.247499942779541
4.568681489558269,0.0265959985554218,-0.9557479619979858,0.3025600016117096,6.947500228881836,7.454999923706055,-5.547500133514404
4.588986740622973,0.0322079993784427,-0.9481839537620544,0.3064639866352081,8.137499809265137,5.09250020980835,-4.427500247955322
4.609291991687677,0.0361119993031024,-0.9472079873085022,0.3137840032577514,8.505000114440918,5.547500133514404,-3.849999904632568
4.62959724275238,0.0375759974122047,-0.9435479640960692,0.3184199929237366,8.27750015258789,4.847499847412109,-3.150000095367432
4.649902493817084,0.037331998348236,-0.9418399930000304,0.322079986333847,7.647500038146973,3.5174999237060547,-2.5374999046325684
4.670207744881788,0.0412359982728958,-0.9364719986915588,0.3357439935207367,7.034999847412109,3.150000095367432,-2.1875
4.6905129959464915,0.0524599999189376,-0.9372040033340454,0.3325719833374023,6.247499942779541,3.972500085830689,-1.9075000286102293
4.710818247011195,0.0505079999566078,-0.9335439801216124,0.3367199897766113,5.110000133514404,4.147500038146973,-1.4350000619888306
4.731123498075899,0.0448959991335868,-0.9437919855117798,0.3381839990615845,3.849999904632568,3.430000066757202,-1.0499999523162842
4.751428749140603,0.0400159992277622,-0.9559919834136964,0.3350119888782501,5.022500038146973,2.852499961853028,-1.2424999475479126
4.771734000205306,0.0402599982917308,-0.9533079862594604,0.3450160026550293,6.422500133514404,2.8350000381469727,-1.6100000143051147
4.79203925127001,0.041967999190092,-0.9472079873085022,0.3540439903736114,6.579999923706055,2.625,-1.8025000095367432
4.812344502334714,0.0444080010056495,-0.9413520097732544,0.3467240035533905,6.212500095367432,2.5899999141693115,-1.7675000429153442
4.8326497533994175,0.052216000854969,-0.9259799718856812,0.3511160016059875,5.670000076293945,2.625,-1.347499966621399
4.852955004464121,0.0583159998059272,-0.9259799718856812,0.3530679941177368,4.304999828338623,3.0450000762939453,-1.0325000286102295
4.873260255528825,0.0512399971485137,-0.9372040033340454,0.3555079996585846,3.132499933242798,3.184999942779541,-0.875
4.893565506593529,0.05197199806571,-0.9401319622993468,0.3574599921703338,2.414999961853028,2.817500114440918,-0.699999988079071
4.913870757658232,0.0551439970731735,-0.9389119744300842,0.3613640069961548,2.1524999141693115,3.220000028610229,-0.6650000214576721
4.934176008722936,0.0514839999377727,-0.9357399940490724,0.3552640080451965,1.9600000381469729,3.7274999618530273,-0.6650000214576721
4.95448125978764,0.0514839999377727,-0.9279319643974304,0.3574599921703338,1.5924999713897705,3.9375,-0.9100000262260436
4.9747865108523435,0.0470919981598854,-0.929639995098114,0.3567279875278473,0.699999988079071,4.690000057220459,-0.9975000023841858
4.995091761917047,0.0348920002579689,-0.941107988357544,0.3596560060977936,0.2450000047683715,5.074999809265137,-1.3125
5.015397012981751,0.032940000295639,-0.9340319633483888,0.3620959818363189,0.1749999970197677,3.8324999809265137,-1.5225000381469729
5.035702264046455,0.028303999453783,-0.9325679540634156,0.3642919957637787,-1.1024999618530271,2.677500009536743,-1.0674999952316284
5.056007515111158,0.0312319993972778,-0.9345200061798096,0.3598999977111816,-0.9975000023841858,2.2925000190734863,-1.1725000143051147
5.076312766175862,0.0319640003144741,-0.9350079894065856,0.3611199855804443,-0.3149999976158142,2.450000047683716,-1.2074999809265137
5.096618017240566,0.0348920002579689,-0.937936007976532,0.3647799789905548,-0.962499976158142,1.2074999809265137,-0.3675000071525574
5.1169232683052694,0.0353799983859062,-0.9428159594535828,0.366487979888916,-0.612500011920929,-0.5774999856948853,0.3849999904632568
5.137228519369973,0.0368440002202987,-0.9452559947967528,0.3545320034027099,0.7699999809265137,-2.134999990463257,0.699999988079071
5.157533770434677,0.0441639982163906,-0.9459879994392396,0.3606320023536682,1.8725000619888303,-3.569999933242798,1.1725000143051147
5.177839021499381,0.0483120009303092,-0.9462319612503052,0.366487979888916,2.0824999809265137,-3.849999904632568,0.9275000095367432
5.198144272564084,0.0595359988510608,-0.9267119765281676,0.366487979888916,1.225000023841858,-2.572499990463257,-0.8575000166893005
5.218449523628788,0.0631959959864616,-0.9347639679908752,0.3533119857311249,-0.3149999976158142,-1.6974999904632568,-0.7875000238418579
5.238754774693492,0.0617319978773593,-0.9418399930000304,0.3601439893245697,-1.6974999904632568,-1.75,-0.699999988079071
5.259060025758195,0.0631959959864616,-0.9481839537620544,0.3452599942684173,-2.0299999713897705,-0.875,-1.5399999618530271
5.279365276822899,0.0668559968471527,-0.9496479630470276,0.3598999977111816,-1.8025000095367432,0.962499976158142,-2.782500028610229
5.299670527887603,0.0251320004463195,-0.9713639616966248,0.3259840011596679,-2.3975000381469727,1.75,-3.009999990463257
5.3199757789523066,0.0649039968848228,-0.9452559947967528,0.3406240046024322,-0.875,-1.2074999809265137,-2.887500047683716
5.34028103001701,0.057583998888731,-0.9271999597549438,0.370635986328125,-1.190000057220459,0.612500011920929,-1.8725000619888303
5.360586281081714,0.0234239995479583,-0.929152011871338,0.3406240046024322,-1.399999976158142,1.5924999713897705,-2.0299999713897705
5.380891532146418,0.0439199991524219,-0.9250040054321288,0.346235990524292,1.0325000286102295,-0.6825000047683716,-0.7875000238418579
5.401196783211121,0.0541680008172988,-0.93012797832489,0.3418439924716949,1.8025000095367432,-1.8025000095367432,0.1924999952316284
5.421502034275825,0.0595359988510608,-0.9267119765281676,0.3455039858818054,3.3949999809265137,-1.5575000047683716,0.5600000023841858
5.441807285340529,0.0663679987192154,-0.9237839579582214,0.3501400053501129,4.409999847412109,-1.0499999523162842,0.875
5.4621125364052325,0.0609999969601631,-0.9340319633483888,0.3494080007076263,4.304999828338623,-0.4900000095367431,1.277500033378601
5.482417787469936,0.0592919997870922,-0.9374479651451112,0.3530679941177368,4.829999923706055,0.262499988079071,1.1200000047683716
5.50272303853464,0.061243999749422,-0.9298839569091796,0.3537999987602234,4.497499942779541,-0.1050000041723251,0.8924999833106995
5.523028289599344,0.0705159977078437,-0.9215880036354064,0.3577039837837219,3.5174999237060547,-0.2450000047683715,0.4200000166893005
5.543333540664047,0.062219999730587,-0.9418399930000304,0.3577039837837219,1.837499976158142,0.0525000020861625,0.332500010728836
5.563638791728751,0.0461159981787204,-0.9425719976425172,0.3686839938163757,2.0999999046325684,0.1749999970197677,-0.699999988079071
5.583944042793455,0.0397720001637935,-0.9491599798202516,0.3340359926223755,3.4124999046325684,-0.5774999856948853,-1.2599999904632568
5.6042492938581585,0.0590479969978332,-0.9279319643974304,0.3691720068454742,1.5575000047683716,-1.8725000619888303,-0.5950000286102295
5.624554544922862,0.0563639998435974,-0.9206119775772096,0.3606320023536682,-0.612500011920929,-0.8050000071525574,0.1574999988079071
5.644859795987566,0.0434319972991943,-0.9476959705352784,0.3313519954681396,-0.1749999970197677,0.3849999904632568,-0.332500010728836
5.66516504705227,0.0556319989264011,-0.9491599798202516,0.3650240004062652,0.7875000238418579,0.4900000095367431,-0.6650000214576721
5.685470298116973,0.0541680008172988,-0.9169519543647766,0.3769800066947937,-0.4724999964237213,0.1924999952316284,-0.1749999970197677
5.705775549181677,0.0497759990394115,-0.9164639711380004,0.3657560050487518,-2.275000095367432,-1.0674999952316284,0.2275000065565109
5.726080800246381,0.0497759990394115,-0.9472079873085022,0.3572160005569458,-1.8899999856948853,0.0175000000745058,-0.0525000020861625
5.7463860513110845,0.0527039989829063,-0.9506239891052246,0.3764919936656952,-1.0325000286102295,0.3849999904632568,0.3499999940395355
5.766691302375788,0.0446520000696182,-0.9535520076751708,0.3823480010032654,-1.8550000190734863,-0.612500011920929,1.1024999618530271
5.786996553440492,0.0641719996929168,-0.9396439790725708,0.3613640069961548,2.345000028610229,-0.332500010728836,-0.3675000071525574
5.807301804505196,0.0580720007419586,-0.9435479640960692,0.3594119846820831,2.450000047683716,0.8924999833106995,0.2975000143051147
5.827607055569899,0.066611997783184,-0.932811975479126,0.3701480031013489,1.1725000143051147,-0.9975000023841858,0.7699999809265137
5.847912306634603,0.0683199986815452,-0.9162200093269348,0.363315999507904,-0.0175000000745058,-2.1875,0.9100000262260436
5.868217557699307,0.061243999749422,-0.9179279804229736,0.3711239993572235,-0.332500010728836,-1.995000004768372,0.6650000214576721
5.8885228087640105,0.0539239980280399,-0.935983955860138,0.3730759918689728,-1.1375000476837158,-0.4550000131130218,0.4025000035762787
5.908828059828714,0.0597799979150295,-0.9306159615516664,0.3828359842300415,-1.4524999856948853,0.6650000214576721,-0.1749999970197677
5.929133310893418,0.0514839999377727,-0.949404001235962,0.3596560060977936,-2.1700000762939453,1.6100000143051147,-0.3149999976158142
5.949438561958122,0.0600240007042884,-0.9362279772758484,0.3540439903736114,-0.9100000262260436,0.9275000095367432,-0.612500011920929
5.969743813022825,0.0670999959111213,-0.9306159615516664,0.3567279875278473,-0.2975000143051147,0.7699999809265137,-0.7524999976158142
5.990049064087529,0.0636840015649795,-0.93012797832489,0.3596560060977936,0.4025000035762787,1.4524999856948853,-1.225000023841858
6.010354315152233,0.0597799979150295,-0.929639995098114,0.366487979888916,0.5425000190734863,2.484999895095825,-1.7675000429153442
6.030659566216936,0.0570959970355033,-0.9289079904556274,0.3657560050487518,0.2975000143051147,3.0799999237060547,-1.8200000524520876
6.05096481728164,0.0605119988322258,-0.9315919876098632,0.3611199855804443,0.1400000005960464,3.150000095367432,-1.6100000143051147
6.071270068346344,0.0580720007419586,-0.937936007976532,0.350627988576889,0.4724999964237213,3.5174999237060547,-1.5750000476837158
6.091575319411048,0.0527039989829063,-0.9430599808692932,0.3569719791412353,0.8224999904632568,4.112500190734863,-1.7675000429153442
6.111880570475751,0.0505079999566078,-0.9476959705352784,0.3572160005569458,0.699999988079071,3.745000123977661,-2.0299999713897705
6.132185821540455,0.0531919971108436,-0.9428159594535828,0.3530679941177368,1.190000057220459,3.2725000381469727,-2.414999961853028
6.152491072605159,0.0534359999001026,-0.933788001537323,0.3584359884262085,1.627500057220459,3.552500009536743,-2.5199999809265137
6.172796323669862,0.0453839972615242,-0.93232399225235,0.3564839959144592,1.4175000190734863,3.8324999809265137,-2.2225000858306885
6.193101574734566,0.0402599982917308,-0.9342759847640992,0.3567279875278473,1.277500033378601,3.797500133514404,-1.75
6.21340682579927,0.0422119982540607,-0.9381799697875975,0.3577039837837219,0.8924999833106995,3.115000009536743,-1.0325000286102295
6.2337120768639736,0.0439199991524219,-0.9376919865608216,0.3559959828853607,0.8924999833106995,1.924999952316284,-0.5249999761581421
6.254017327928677,0.0456280000507831,-0.9325679540634156,0.3594119846820831,0.9100000262260436,0.7350000143051147,-0.2975000143051147
6.274322578993381,0.0500199981033802,-0.9325679540634156,0.3603879809379577,0.1050000041723251,-0.262499988079071,0.0350000001490116
6.294627830058085,0.0507519990205764,-0.9354959726333618,0.3542879819869995,-0.699999988079071,-0.875,0.1225000023841857
6.314933081122788,0.0541680008172988,-0.944279968738556,0.3447719812393188,-1.3825000524520874,-1.7324999570846558,0.1749999970197677
6.335238332187492,0.0624639987945556,-0.948915958404541,0.3398919999599457,-1.5575000047683716,-2.870000123977661,0.612500011920929
6.355543583252196,0.0744199976325035,-0.9389119744300842,0.3374519944190979,-1.6449999809265137,-4.409999847412109,1.0149999856948853
6.3758488343168995,0.0793000012636184,-0.9267119765281676,0.3325719833374023,-6.072500228881836,-7.052500247955322,1.4175000190734863
6.396154085381603,0.0719799995422363,-0.9508680105209352,0.314516007900238,-8.539999961853027,-8.417500495910645,1.0499999523162842
6.416459336446307,0.0734440013766288,-0.9513559937477112,0.3211039900779724,-9.15250015258789,-10.114999771118164,0.7699999809265137
6.436764587511011,0.0893040001392364,-0.936959981918335,0.3289119899272918,-9.274999618530272,-11.4975004196167,1.277500033378601
6.457069838575714,0.0910120010375976,-0.9313479661941528,0.3228119909763336,-10.289999961853027,-12.460000038146973,2.625
6.477375089640418,0.0822279974818229,-0.9533079862594604,0.326227992773056,-12.477499961853027,-14.875,5.477499961853027
6.497680340705122,0.0509959980845451,-0.9542839527130128,0.3403799831867218,-12.8100004196167,-17.079999923706055,7.664999961853027
6.5179855917698255,0.0278159994632005,-0.9393999576568604,0.3476999998092651,-12.28499984741211,-20.405000686645508,8.925000190734863
6.538290842834529,0.0151279997080564,-0.9472079873085022,0.350627988576889,-11.270000457763672,-24.65749931335449,10.762499809265137
6.558596093899233,0.0134199997410178,-0.9469639658927916,0.3474559783935547,-9.25749969482422,-28.01749992370605,14.244999885559082
6.578901344963937,0.0212280005216598,-0.9113399982452391,0.3369639813899994,-5.914999961853027,-30.57250022888184,17.762500762939453
6.59920659602864,0.041967999190092,-0.9279319643974304,0.3242760002613067,-4.042500019073486,-36.119998931884766,20.49250030517578
6.619511847093344,0.0744199976325035,-0.9430599808692932,0.3320840001106262,-3.640000104904175,-41.352500915527344,25.09499931335449
6.639817098158048,0.0883279964327812,-0.9698999524116516,0.3355000019073486,-4.53249979019165,-43.18999862670898,29.924999237060547
6.6601223492227515,0.0732000023126602,-0.9703879952430724,0.3359879851341247,-3.430000066757202,-42.85750198364258,33.51250076293945
6.680427600287455,0.0805199965834617,-0.9469639658927916,0.3071959912776947,-0.6299999952316284,-43.29500198364258,35.3849983215332
6.700732851352159,0.1056519970297813,-0.93012797832489,0.2910920083522796,1.1725000143051147,-44.04750061035156,36.24250030517578
6.721038102416863,0.1351760029792785,-0.9184159636497498,0.2832840085029602,-0.2275000065565109,-43.435001373291016,37.712501525878906
6.741343353481566,0.1661639958620071,-0.9201239943504332,0.2369239926338195,-1.8725000619888303,-42.17499923706055,40.82749938964844
6.76164860454627,0.1517679989337921,-0.920367956161499,0.2486359924077987,3.762500047683716,-38.39500045776367,44.345001220703125
6.781953855610974,0.1771439909934997,-1.0001559257507324,0.2176479995250702,14.524999618530272,-21.770000457763672,59.34249877929688
6.8022591066756775,0.0114679997786879,-0.9298839569091796,0.367464005947113,11.042500495910645,-18.112499237060547,61.337501525878906
6.822564357740381,0.0480679981410503,-1.00381600856781,0.264983981847763,-28.315000534057617,-44.01250076293945,45.23749923706055
6.842869608805085,0.0207399986684322,-1.0389519929885864,0.2195999920368194,-22.26000022888184,-30.625,44.397499084472656
6.863174859869789,-0.0165919996798038,-1.099951982498169,0.2010560035705566,-20.14249992370605,-25.8125,42.57749938964844
6.883480110934492,-0.0734440013766288,-1.0628639459609983,0.2025199979543686,-12.670000076293944,-25.059999465942383,40.477500915527344
6.903785361999196,-0.1788519918918609,-0.9745360016822816,0.2110600024461746,-14.734999656677246,-32.7599983215332,42.26250076293945
6.9240906130639,-0.3162239789962768,-1.0028399229049685,0.2554679811000824,-26.28499984741211,-48.00249862670898,34.59749984741211
6.944395864128603,-0.1571359932422638,-1.079211950302124,0.2913359999656677,-17.482500076293945,-52.92000198364258,9.520000457763672
6.964701115193307,-0.2183799892663955,-1.0430999994277954,0.2461960017681121,-1.3300000429153442,-47.79249954223633,26.54750061035156
6.985006366258011,-0.2020319998264312,-0.9196360111236572,0.2349720001220703,31.920000076293945,-28.752500534057617,15.75
7.005311617322715,-0.2493679970502853,-0.868395984172821,0.2588839828968048,25.84749984741211,-35.45500183105469,25.707500457763672
7.025616868387418,-0.2066679894924163,-0.822767972946167,0.3472119867801666,17.97249984741211,-43.61000061035156,24.045000076293945
7.045922119452122,-0.2608360052108764,-0.8820599913597107,0.3796640038490295,-4.09499979019165,-55.42250061035156,5.022500038146973
7.066227370516826,-0.1468880027532577,-0.9847840070724488,0.3799079954624176,-11.30500030517578,-62.82500076293945,-52.08000183105469
7.086532621581529,-0.1056519970297813,-1.0069879293441772,0.3601439893245697,2.257499933242798,-56.647499084472656,-63.209999084472656
7.106837872646233,-0.0226919986307621,-0.9916160106658936,0.3845439851284027,13.440000534057615,-53.47999954223633,-68.66999816894531
7.127143123710937,0.0058559998869895,-0.9242720007896424,0.4021120071411133,15.329999923706056,-49.8224983215332,-45.48250198364258
7.1474483747756405,0.0139079997316002,-0.8666880130767822,0.4196799993515014,7.630000114440918,-53.900001525878906,-0.6650000214576721
7.167753625840344,-0.1036999970674514,-0.9267119765281676,0.3921079933643341,6.107500076293945,-50.20750045776367,12.582500457763672
7.188058876905048,-0.0129319997504353,-0.8949919939041138,0.4126040041446686,13.09000015258789,-43.6974983215332,5.09250020980835
7.208364127969752,-0.0614879988133907,-0.9062159657478333,0.3964999914169311,7.297500133514404,-49.27999877929688,28.420000076293945
7.228669379034455,-0.0570959970355033,-0.9118279814720154,0.3901560008525848,4.514999866485596,-48.00249862670898,30.239999771118164
7.248974630099159,-0.0487999990582466,-0.9113399982452391,0.3723439872264862,6.824999809265137,-44.02999877929688,28.80500030517578
7.269279881163863,-0.0614879988133907,-0.9035319685935974,0.3484320044517517,11.480000495910645,-40.14500045776367,26.792499542236328
7.2895851322285665,-0.0588039979338645,-0.9018239974975586,0.3469679951667785,12.232500076293944,-38.9375,24.237499237060547
7.30989038329327,-0.0580720007419586,-0.8866959810256958,0.3528240025043487,9.922499656677246,-37.93999862670898,22.61000061035156
7.330195634357974,-0.0649039968848228,-0.8964560031890869,0.3474559783935547,5.635000228881836,-38.53499984741211,21.6825008392334
7.350500885422678,-0.0756400004029274,-0.9108519554138184,0.3398919999599457,2.9749999046325684,-39.74250030517578,19.530000686645508
7.370806136487381,-0.041967999190092,-0.8837679624557495,0.4187040030956268,-2.940000057220459,-46.3224983215332,18.76000022888184
7.391111387552085,-0.0922319963574409,-0.957211971282959,0.3396480083465576,-16.065000534057617,-43.29500198364258,18.917499542236328
7.411416638616789,-0.0705159977078437,-0.9640439748764038,0.3064639866352081,-17.920000076293945,-47.372501373291016,21.45499992370605
7.4317218896814925,-0.0707599967718124,-0.9506239891052246,0.3457480072975158,-2.5899999141693115,-46.060001373291016,19.28499984741211
7.452027140746196,-0.0802759975194931,-0.904263973236084,0.3557519912719726,2.8350000381469727,-46.68999862670898,17.5
7.4723323918109,-0.0717360004782676,-0.8957239985466003,0.3635599911212921,0.7875000238418579,-47.6349983215332,12.1274995803833
7.492637642875604,0.0214719995856285,-0.9006040096282959,0.3769800066947937,1.2599999904632568,-45.20249938964844,0.0525000020861625
7.512942893940307,0.0058559998869895,-0.9608719944953918,0.3723439872264862,1.924999952316284,-49.0525016784668,-15.3125
7.533248145005011,-0.3064639866352081,-0.9420839548110962,0.3586799800395965,5.162499904632568,-47.98500061035156,-16.975000381469727
7.553553396069715,-0.0334279984235763,-0.8871839642524719,0.3760039806365967,7.192500114440918,-61.95000076293945,14.9975004196167
7.5738586471344185,-0.0090279998257756,-0.8874279856681824,0.3930839896202087,-0.0350000001490116,-52.709999084472656,39.28749847412109
7.594163898199122,-0.1981279999017715,-0.9513559937477112,0.3428199887275696,-8.960000038146973,-59.60499954223633,39.602500915527344
7.614469149263826,-0.1024799942970275,-0.935983955860138,0.3894239962100982,-1.2949999570846558,-64.03250122070312,17.97249984741211
7.63477440032853,-0.1012599989771843,-0.9006040096282959,0.403575986623764,3.9375,-64.45249938964844,15.592499732971191
7.655079651393233,-0.0975999981164932,-0.8957239985466003,0.3889359831809997,1.662500023841858,-64.59249877929688,15.015000343322754
7.675384902457937,-0.0900359973311424,-0.9032880067825316,0.367464005947113,-4.445000171661377,-64.12000274658203,14.420000076293944
7.695690153522641,-0.0785679966211319,-0.8830359578132629,0.3855199813842773,-7.892499923706055,-63.34999847412109,14.210000038146973
7.7159954045873445,-0.0717360004782676,-0.9106079936027528,0.3894239962100982,-6.84250020980835,-62.15999984741211,16.572500228881836
7.736300655652048,-0.0734440013766288,-0.9106079936027528,0.407723993062973,-4.409999847412109,-61.372501373291016,14.595000267028809
7.756605906716752,-0.0778359994292259,-0.9110959768295288,0.41211599111557,-3.3600001335144043,-62.89500045776367,11.899999618530272
7.776911157781456,-0.0924759954214096,-0.8991400003433228,0.4023559987545013,-2.782500028610229,-61.98500061035156,9.204999923706056
7.797216408846159,-0.1290760040283203,-0.9308599829673768,0.4030880033969879,-4.497499942779541,-69.52750396728516,10.272500038146973
7.817521659910863,-0.0344039984047412,-0.933299958705902,0.3718560039997101,-2.327500104904175,-68.37249755859375,9.362500190734863
7.837826910975567,-0.0649039968848228,-0.9372040033340454,0.4401759803295135,-3.430000066757202,-47.54750061035156,5.197500228881836
7.85813216204027,-0.1012599989771843,-0.933299958705902,0.4318799972534179,-1.5924999713897705,-51.99250030517578,1.4350000619888306
7.878437413104974,-0.0585599988698959,-0.9996680021286012,0.4291960000991821,-4.900000095367432,-58.95750045776367,9.25749969482422
7.898742664169678,-0.018300000578165,-1.0145519971847534,0.4467639923095703,0.5074999928474426,-57.17250061035156,12.739999771118164
7.919047915234382,0.0102479998022317,-0.9996680021286012,0.4126040041446686,5.617499828338623,-55.47499847412109,15.8725004196167
7.939353166299085,-0.0553879998624324,-0.9381799697875975,0.375027984380722,7.210000038146973,-60.35750198364258,20.440000534057617
7.959658417363789,-0.0224479995667934,-0.8891359567642212,0.4191919863224029,-2.240000009536743,-61.42499923706055,22.08500099182129
7.979963668428493,-0.0812520012259483,-0.8644919991493225,0.4389559924602508,-9.869999885559082,-55.5625,17.780000686645508
8.000268919493196,-0.0290360003709793,-0.90475195646286,0.3869839906692505,-37.97499847412109,-67.97000122070312,24.815000534057617
8.0205741705579,-0.0234239995479583,-1.0613999366760254,0.3320840001106262,-16.327499389648438,-62.66749954223633,31.325000762939453
8.040879421622604,0.0224479995667934,-1.0289479494094849,0.3147599995136261,8.907500267028809,-50.85499954223633,16.274999618530273
8.061184672687308,0.0412359982728958,-0.9262239933013916,0.3001199960708618,16.39750099182129,-46.462501525878906,13.510000228881836
8.081489923752011,0.0358680002391338,-0.9164639711380004,0.2396079897880554,11.287500381469728,-49.50749969482422,9.397500038146973
8.101795174816715,0.0331839993596077,-0.9508680105209352,0.2483920007944107,3.797500133514404,-65.39749908447266,5.775000095367432
8.122100425881419,0.0580720007419586,-1.0265079736709597,0.2749879956245422,-0.4200000166893005,-77.61250305175781,3.307500123977661
8.142405676946122,0.0707599967718124,-1.0391960144042969,0.3015840053558349,1.1725000143051147,-84.66500091552734,0.6825000047683716
8.162710928010826,0.1146799996495246,-1.0355359315872192,0.3201279938220978,3.220000028610229,-88.2699966430664,-2.275000095367432
8.18301617907553,0.1371279954910278,-1.0082080364227295,0.2742559909820556,4.602499961853027,-90.59750366210938,-5.039999961853027
8.203321430140234,0.2383880019187927,-0.9889319539070128,0.2313119918107986,9.782500267028809,-98.3324966430664,-6.632500171661377
8.223626681204937,0.2444880008697509,-0.9372040033340454,0.2210640013217926,12.407500267028809,-101.91999816894533,-6.090000152587891
8.243931932269641,0.281576007604599,-0.8420439958572388,0.2327760010957718,7.909999847412109,-102.9000015258789,-5.53000020980835
8.264237183334345,0.2945079803466797,-0.8244760036468506,0.2230159938335418,-0.9975000023841858,-96.66999816894533,-5.84499979019165
8.284542434399048,0.2537599802017212,-0.8164240121841431,0.2149640023708343,-6.107500076293945,-88.88249969482422,-2.555000066757202
8.304847685463752,0.2015440016984939,-0.8669319748878479,0.1903200000524521,-17.0625,-93.0824966430664,4.567500114440918
8.325152936528456,0.2056919932365417,-0.8901119828224182,0.2471719980239868,-20.299999237060547,-95.76000213623048,10.90250015258789
8.34545818759316,0.1881240010261535,-0.9267119765281676,0.2937760055065155,-20.212499618530277,-89.18000030517578,14.822500228881836
8.365763438657863,0.1898320019245147,-0.9589200019836426,0.293287992477417,-14.577500343322754,-86.36250305175781,16.764999389648438
8.386068689722567,0.2191119939088821,-0.9559919834136964,0.281576007604599,-5.25,-86.66000366210938,17.377500534057617
8.40637394078727,0.2788919806480407,-0.9069479703903198,0.2830399870872497,2.747499942779541,-87.43000030517578,16.204999923706055
8.426679191851974,0.2910920083522796,-0.839847981929779,0.3137840032577514,5.320000171661377,-79.9574966430664,14.06999969482422
8.446984442916678,0.2588839828968048,-0.9096319675445556,0.3274479806423187,-1.9424999952316284,-75.52999877929688,16.012500762939453
8.467289693981382,0.2481479942798614,-0.9437919855117798,0.3250080049037933,-6.422500133514404,-74.53250122070312,15.172499656677246
8.487594945046085,0.273279994726181,-0.9088999629020692,0.269131988286972,-4.112500190734863,-72.74749755859375,15.260000228881836
8.50790019611079,0.2869440019130707,-0.8364319801330566,0.253028005361557,1.399999976158142,-69.07250213623047,19.792499542236328
8.528205447175493,0.2886520028114319,-0.7559120059013367,0.297435998916626,0.4200000166893005,-65.83499908447266,27.317501068115234
8.548510698240197,0.2776719927787781,-0.8078839778900146,0.3081719875335693,-7.052500247955322,-62.19499969482422,35.087501525878906
8.5688159493049,0.253028005361557,-0.903775990009308,0.3318399786949157,-10.9375,-61.005001068115234,39.54999923706055
8.589121200369604,0.2039839923381805,-0.9747799634933472,0.3584359884262085,-7.612500190734863,-62.212501525878906,37.5724983215332
8.609426451434308,0.1947119981050491,-1.0543240308761597,0.3716119825839996,-2.8350000381469727,-66.30750274658203,31.587499618530277
8.629731702499011,0.2091079950332641,-1.0665240287780762,0.3889359831809997,1.347499966621399,-71.05000305175781,19.98500061035156
8.650036953563715,0.2603479921817779,-1.0021079778671265,0.3767359852790832,5.057499885559082,-74.65499877929688,6.142499923706055
8.670342204628419,0.3142719864845276,-0.8957239985466003,0.2996319830417633,7.034999847412109,-74.18250274658203,4.672500133514404
8.690647455693123,0.3315959870815277,-0.8996279835700989,0.2513200044631958,5.442500114440918,-72.87000274658203,14.875
8.710952706757826,0.3413559794425964,-1.0213840007781982,0.23887600004673,6.789999961853027,-72.57250213623047,23.905000686645508
8.73125795782253,0.2835280001163482,-1.2522079944610596,0.2225279957056045,12.162500381469728,-69.09000396728516,22.5575008392334
8.751563208887234,0.2042279988527298,-1.3986079692840576,0.3106119930744171,21.350000381469727,-63.157501220703125,5.670000076293945
8.771868459951937,0.2315559983253479,-1.4696120023727417,0.2174039930105209,24.53499984741211,-57.8025016784668,-10.779999732971191
8.792173711016641,0.1973959952592849,-1.36273992061615,-0.0270840004086494,37.310001373291016,-44.59000015258789,-18.497499465942383
8.812478962081345,0.0339160002768039,-0.8871839642524719,0.0732000023126602,69.42250061035156,-65.74749755859375,3.674999952316284
8.832784213146049,-0.047580000013113,-0.7476159930229187,0.2047159969806671,75.98500061035156,-67.44499969482422,17.43000030517578
8.853089464210752,-0.0963799953460693,-0.8047119975090027,0.3174439966678619,69.2300033569336,-52.5525016784668,27.8075008392334
8.873394715275456,-0.0844239965081214,-0.9567239880561828,0.3564839959144592,56.0,-33.092498779296875,32.375
8.89369996634016,0.0173240005970001,-1.0277279615402222,0.3213479816913605,52.34249877929688,-21.47249984741211,32.165000915527344
8.914005217404863,0.1212679967284202,-1.004547953605652,0.2810879945755005,55.125,-14.06999969482422,33.26750183105469
8.934310468469567,0.1778759956359863,-0.8603439927101135,0.2569319903850555,57.3125,-10.13249969482422,31.79750061035156
8.95461571953427,0.1427399963140487,-0.8730319738388062,0.2766959965229034,45.32500076293945,-11.024999618530272,36.33000183105469
8.974920970598975,0.1376159936189651,-0.8642479777336121,0.3681959807872772,40.21500015258789,-14.90999984741211,38.56999969482422
8.995226221663678,0.0917439982295036,-0.7876319885253906,0.4257799983024597,30.99250030517578,-15.855000495910645,35.13999938964844
9.015531472728382,0.0146399997174739,-0.7761639952659607,0.4387120008468628,13.737500190734863,-13.947500228881836,35.45500183105469
9.035836723793086,-0.0092719998210668,-0.8308199644088745,0.4272439777851105,5.40749979019165,-10.587499618530272,36.48749923706055
9.05614197485779,0.0151279997080564,-0.8205719590187073,0.4201679825782776,5.389999866485596,-3.4649999141693115,38.46500015258789
9.076447225922493,0.0397720001637935,-0.7903159856796265,0.4079679846763611,3.8324999809265137,4.322500228881836,40.95000076293945
9.096752476987197,0.0331839993596077,-0.748591959476471,0.3855199813842773,0.5950000286102295,6.912499904632568,38.8849983215332
9.1170577280519,-0.0034159999340772,-0.7246800065040588,0.366487979888916,-7.315000057220459,0.7524999976158142,35.595001220703125
9.137362979116604,-0.0319640003144741,-0.7393199801445007,0.3781999945640564,-15.994999885559082,-4.042500019073486,32.27000045776367
9.157668230181308,-0.0431879982352256,-0.7678679823875427,0.407723993062973,-20.5625,-3.150000095367432,27.912500381469727
9.177973481246012,-0.038307998329401,-0.8303319811820984,0.4208999872207641,-19.967500686645508,-2.2049999237060547,22.207500457763672
9.198278732310715,-0.0131759997457265,-0.8391159772872925,0.4421280026435852,-14.927499771118164,-3.8324999809265137,14.980000495910645
9.218583983375419,0.0275719985365867,-0.8095920085906982,0.4482280015945434,-11.672499656677246,-5.127500057220459,8.032500267028809
9.238889234440123,0.0600240007042884,-0.7795799970626831,0.4450559914112091,-11.322500228881836,-3.640000104904175,3.430000066757202
9.259194485504826,0.0707599967718124,-0.7893399596214294,0.4494479894638061,-15.38249969482422,-3.587500095367432,0.9800000190734864
9.27949973656953,0.076615996658802,-0.8408240079879761,0.473360002040863,-19.162500381469727,-2.817500114440918,-0.8400000333786011
9.299804987634234,0.0871080011129379,-0.9159759879112244,0.5011759996414185,-19.337499618530277,1.8550000190734863,-1.4350000619888306
9.320110238698938,0.1063839942216873,-1.0116239786148071,0.4960519969463348,-15.015000343322754,10.797499656677246,-1.9600000381469729
9.340415489763641,0.1283439993858337,-1.0997079610824585,0.4921479821205139,-5.617499828338623,22.88999938964844,-3.184999942779541
9.360720740828345,0.1112639978528022,-1.0504199266433716,0.5214279890060425,7.840000152587891,32.462501525878906,-4.007500171661377
9.381025991893049,0.0148839997127652,-0.933788001537323,0.5794999599456787,15.27750015258789,35.90999984741211,-0.4375
9.401331242957752,-0.0624639987945556,-0.8676639795303345,0.6273239850997925,11.77750015258789,37.72999954223633,1.75
9.421636494022456,-0.2025199979543686,-1.0516400337219238,0.642695963382721,-1.0325000286102295,41.5099983215332,2.870000123977661
9.44194174508716,-0.1900759935379028,-1.234395980834961,0.6641680002212524,1.784999966621399,38.307498931884766,1.399999976158142
9.462246996151864,-0.1708000004291534,-1.3524919748306274,0.6895439624786377,15.260000228881836,33.127498626708984,1.7324999570846558
9.482552247216567,-0.1900759935379028,-1.203895926475525,0.5841360092163086,27.545000076293945,22.434999465942383,5.302500247955322
9.502857498281271,-0.3137840032577514,-0.938423991203308,0.4706760048866272,24.07999992370605,10.307499885559082,4.514999866485596
9.523162749345975,-0.3481879830360412,-0.8659560084342957,0.3799079954624176,12.529999732971191,5.40749979019165,-6.755000114440918
9.543468000410678,-0.3611199855804443,-0.9123159646987916,0.2945079803466797,9.15250015258789,-4.182499885559082,-27.33500099182129
9.563773251475382,-0.2039839923381805,-0.981123983860016,0.2027639895677566,13.387499809265137,-22.9424991607666,-39.40999984741211
9.584078502540086,0.0417240001261234,-0.9508680105209352,0.1234639957547187,18.602500915527344,-31.79750061035156,-30.362499237060547
9.60438375360479,0.0375759974122047,-0.958675980567932,0.0483120009303092,22.45249938964844,-29.45249938964844,-17.517499923706055
9.624689004669493,-0.0783239975571632,-0.9362279772758484,0.1229759976267814,26.092500686645508,-43.435001373291016,-15.329999923706056
9.644994255734197,-0.056607998907566,-0.9101200103759766,0.3079279959201813,17.149999618530273,-67.67250061035156,-16.485000610351562
9.6652995067989,-0.0285479985177516,-0.87254399061203,0.3730759918689728,5.897500038146973,-74.63749694824219,-20.33500099182129
9.685604757863604,-0.0243999995291233,-0.8986519575119019,0.3367199897766113,-1.8025000095367432,-75.38999938964844,-23.450000762939453
9.705910008928308,0.0082959998399019,-0.9545279741287231,0.2913359999656677,-5.53000020980835,-74.14749908447266,-25.58500099182129
9.726215259993012,0.0963799953460693,-0.8925519585609436,0.2898719906806946,-1.1024999618530271,-74.98750305175781,-26.915000915527344
9.746520511057716,0.163235992193222,-0.8083719611167908,0.2952399849891662,-2.9574999809265137,-76.9124984741211,-21.927499771118164
9.76682576212242,0.2181359976530075,-0.7566440105438232,0.2764520049095154,-15.627500534057615,-80.8499984741211,-13.369999885559082
9.787131013187123,0.2515639960765838,-0.7671359777450562,0.2571759819984436,-30.92250061035156,-82.61750030517578,-5.775000095367432
9.807436264251827,0.2622999846935272,-0.7429800033569336,0.2842600047588348,-38.67499923706055,-78.76750183105469,-2.1875
9.82774151531653,0.2313119918107986,-0.8230119943618774,0.3069519996643066,-43.872501373291016,-72.83499908447266,1.8725000619888303
9.848046766381234,0.2239919900894165,-0.8230119943618774,0.334524005651474,-37.55500030517578,-66.08000183105469,4.042500019073486
9.868352017445938,0.206179991364479,-0.8295999765396118,0.3045119941234588,-31.832500457763672,-58.15250015258789,9.467499732971191
9.888657268510642,0.2217959910631179,-0.8120319843292236,0.269131988286972,-28.087499618530277,-53.77750015258789,15.119999885559082
9.908962519575345,0.2576639950275421,-0.7395640015602112,0.3142719864845276,-26.354999542236328,-50.68000030517578,22.417499542236328
9.929267770640049,0.2630319893360138,-0.6983279585838318,0.3620959818363189,-27.895000457763672,-47.1974983215332,32.3224983215332
9.949573021704753,0.2681559920310974,-0.7295599579811096,0.3686839938163757,-29.854999542236328,-43.66249847412109,41.86000061035156
9.969878272769456,0.3132959902286529,-0.8359439969062805,0.346235990524292,-31.692501068115234,-37.432498931884766,47.95000076293945
9.99018352383416,0.2845039963722229,-0.9601399898529052,0.3467240035533905,-30.92250061035156,-30.11750030517578,48.22999954223633
10.010488774898864,0.2200879901647567,-1.0892159938812256,0.2915799915790558,-27.825000762939453,-25.8125,38.622501373291016
10.030794025963568,0.1437159925699234,-1.1001960039138794,0.3555079996585846,-22.9950008392334,-22.190000534057617,-0.4724999964237213
10.051099277028271,0.1912959963083267,-1.046515941619873,0.3555079996585846,-21.36750030517578,-24.46500015258789,-12.407500267028809
10.071404528092975,0.2498559951782226,-1.0296800136566162,0.3294000029563904,-11.952500343322754,-24.815000534057617,-10.43000030517578
10.091709779157679,0.2315559983253479,-1.0987319946289062,0.3964999914169311,0.4550000131130218,-27.93000030517578,0.1050000041723251
10.112015030222382,0.2598600089550018,-1.246351957321167,0.3542879819869995,7.297500133514404,-31.780000686645508,2.0999999046325684
10.132320281287086,0.2723039984703064,-1.3961679935455322,0.391864001750946,9.362500190734863,-36.400001525878906,-12.039999961853027
10.15262553235179,0.2757200002670288,-1.4313039779663086,0.3435519933700561,8.4350004196167,-42.50749969482422,-32.74250030517578
10.172930783416493,0.3579480051994324,-1.3510279655456543,0.0060999998822808,17.447500228881836,-34.0724983215332,-45.20249938964844
10.193236034481197,0.3313519954681396,-1.0596920251846311,-0.171775996685028,41.720001220703125,-25.82999992370605,-32.252498626708984
10.213541285545901,0.2200879901647567,-0.8525359630584717,-0.1180959939956665,58.415000915527344,-40.932498931884766,-2.992500066757202
10.233846536610605,0.0546559989452362,-0.7759199738502502,-0.0551439970731735,62.58000183105469,-51.6775016784668,19.4424991607666
10.254151787675308,-0.1551840007305145,-0.8444839715957642,0.2766959965229034,51.53749847412109,-44.79999923706055,25.864999771118164
10.274457038740012,-0.1593319922685623,-1.156559944152832,0.4130919873714447,30.520000457763672,-35.157501220703125,23.22249984741211
10.294762289804716,0.0368440002202987,-1.2243919372558594,0.3430639803409576,54.337501525878906,-10.920000076293944,14.157500267028809
10.31506754086942,0.1576239913702011,-1.0687199831008911,0.2749879956245422,80.67500305175781,20.877500534057617,15.050000190734863
10.335372791934123,0.2359479963779449,-0.8286240100860596,0.2020319998264312,80.11499786376953,29.9950008392334,22.27750015258789
10.355678042998827,0.2513200044631958,-0.6983279585838318,0.1744599938392639,63.192501068115234,24.88500022888184,29.03249931335449
10.37598329406353,0.220331996679306,-0.7280960083007812,0.2349720001220703,36.837501525878906,24.13249969482422,35.03499984741211
10.396288545128234,0.140299990773201,-0.8449719548225403,0.3206160068511963,17.114999771118164,28.13999938964844,36.557498931884766
10.416593796192938,0.0646599978208541,-0.8635159730911255,0.3808839917182922,13.072500228881836,35.314998626708984,30.04750061035156
10.436899047257642,-0.0246439985930919,-0.8420439958572388,0.4108960032463074,12.967499732971191,41.5625,26.82749938964844
10.457204298322345,-0.1100439950823783,-0.7324879765510559,0.4013800024986267,12.984999656677246,45.9375,29.81999969482422
10.47750954938705,-0.1734839975833892,-0.7073559761047363,0.3838119804859161,4.269999980926514,46.27000045776367,36.66249847412109
10.497814800451753,-0.1371279954910278,-0.6595320105552673,0.3867399990558624,-3.0975000858306885,42.0525016784668,40.442501068115234
10.518120051516457,-0.066611997783184,-0.6907640099525452,0.3620959818363189,-13.859999656677246,37.90499877929688,38.46500015258789
10.53842530258116,-0.0348920002579689,-0.7241919636726379,0.3028039932250976,-21.787500381469727,33.14500045776367,31.325000762939453
10.558730553645864,-0.0324519984424114,-0.7554239630699158,0.3137840032577514,-26.967500686645508,23.520000457763672,23.32749938964844
10.579035804710568,-0.0190319996327161,-0.7171159982681274,0.4282200038433075,-28.15749931335449,17.885000228881836,14.244999885559082
10.599341055775271,0.0065879998728632,-0.6912519931793213,0.517035961151123,-30.799999237060547,15.4350004196167,2.765000104904175
10.619646306839975,0.0361119993031024,-0.7471280097961426,0.4938559830188751,-34.96500015258789,15.032500267028809,-6.247499942779541
10.639951557904679,0.0158599987626075,-1.073356032371521,0.4050399959087372,-31.88500022888184,17.7450008392334,-11.970000267028809
10.660256808969383,0.0226919986307621,-1.205847978591919,0.485071986913681,-15.260000228881836,16.292499542236328,-11.462499618530272
10.680562060034086,0.0287919994443655,-1.193892002105713,0.5385079979896545,1.5575000047683716,16.467500686645508,-1.1375000476837158
10.70086731109879,-0.0261080004274845,-0.974291980266571,0.5477799773216248,12.3725004196167,19.774999618530277,8.680000305175781
10.721172562163494,-0.0949160009622573,-0.9647759795188904,0.5599799752235413,9.327500343322754,28.40250015258789,7.595000267028809
10.741477813228197,-0.118827998638153,-1.1050759553909302,0.5970680117607117,12.425000190734863,34.5625,-3.745000123977661
10.761783064292901,-0.0444080010056495,-1.4166640043258667,0.6863719820976257,17.53499984741211,33.58250045776367,-6.667500019073486
10.782088315357605,-0.1305399984121322,-1.6923840045928955,0.6041439771652222,35.57749938964844,36.522499084472656,3.3424999713897705
10.802393566422309,-0.1598199903964996,-1.350051999092102,0.3955239951610565,63.682498931884766,19.4950008392334,8.8725004196167
10.822698817487012,-0.2220399975776672,-0.9076799750328064,0.3113439977169037,61.3025016784668,10.1850004196167,-0.9449999928474426
10.843004068551716,-0.2410719990730285,-0.6517239809036255,0.2791360020637512,47.65250015258789,21.15749931335449,-24.2549991607666
10.86330931961642,-0.1368840038776397,-0.6231759786605835,0.1637239903211593,26.354999542236328,25.23500061035156,-47.845001220703125
10.883614570681123,0.0729559957981109,-0.7583519816398621,0.0231800004839897,8.137499809265137,14.385000228881836,-54.86249923706055
10.903919821745827,0.1471319943666458,-1.0467599630355835,0.0317199975252151,0.262499988079071,17.780000686645508,-39.165000915527344
10.92422507281053,0.0200079996138811,-1.1914520263671875,0.1324919909238815,3.587500095367432,-1.2074999809265137,-21.84000015258789
10.944530323875235,-0.0751519948244094,-1.0831159353256226,0.3267160058021545,14.087499618530272,-32.217498779296875,-26.4424991607666
10.964835574939938,-0.0300120003521442,-0.9528200030326844,0.4487159848213196,13.037500381469728,-49.26250076293945,-37.712501525878906
10.985140826004642,-0.0102479998022317,-0.8478999733924866,0.3855199813842773,9.537500381469728,-43.942501068115234,-47.494998931884766
11.005446077069346,0.0480679981410503,-0.7815319895744324,0.305976003408432,2.047499895095825,-36.8025016784668,-51.04750061035156
11.02575132813405,0.1556719988584518,-0.8056879639625549,0.2552239894866943,-10.342499732971191,-31.46500015258789,-45.16749954223633
11.046056579198753,0.224723994731903,-0.7917799949645996,0.2374119907617569,-19.63500022888184,-31.255001068115234,-33.127498626708984
11.066361830263457,0.2554679811000824,-0.7829959988594055,0.2527839839458465,-28.84000015258789,-38.04500198364258,-20.387500762939453
11.08666708132816,0.2664479911327362,-0.7705519795417786,0.2471719980239868,-36.872501373291016,-43.20750045776367,-13.895000457763672
11.106972332392864,0.2644959986209869,-0.7932440042495728,0.2671799957752228,-43.15499877929688,-39.4275016784668,-12.302499771118164
11.127277583457568,0.2457079887390136,-0.8222799897193909,0.3294000029563904,-42.962501525878906,-30.170000076293945,-11.024999618530272
11.147582834522272,0.1910519897937774,-0.8415560126304626,0.3413559794425964,-39.44499969482422,-23.362499237060547,-4.847499847412109
11.167888085586975,0.1876360028982162,-0.8205719590187073,0.2989000082015991,-33.11000061035156,-20.52750015258789,1.8725000619888303
11.188193336651679,0.2117919921875,-0.7578639984130859,0.2803559899330139,-27.912500381469727,-17.482500076293945,9.204999923706056
11.208498587716383,0.226187989115715,-0.7036960124969482,0.3106119930744171,-26.6875,-16.362499237060547,19.565000534057617
11.228803838781086,0.234727993607521,-0.6946679949760437,0.3198840022087097,-26.950000762939453,-17.342500686645508,30.15250015258789
11.24910908984579,0.2154520004987716,-0.952575981616974,0.3242760002613067,-27.14249992370605,-8.697500228881836,44.869998931884766
11.269414340910494,0.1163880005478859,-1.0430999994277954,0.3572160005569458,-19.354999542236328,-4.042500019073486,41.334999084472656
11.289719591975198,0.1132159978151321,-1.093851923942566,0.3672199845314026,-12.600000381469728,-3.990000009536743,30.309999465942383
11.310024843039901,0.1564040035009384,-1.078724026679993,0.3323279917240143,-13.230000495910645,-4.795000076293945,12.092499732971191
11.330330094104605,0.1998360008001327,-0.9535520076751708,0.3198840022087097,-19.26749992370605,-10.53499984741211,-2.2049999237060547
11.350635345169309,0.2454639971256256,-0.929152011871338,0.2701079845428467,-28.21000099182129,-20.42250061035156,-5.127500057220459
11.370940596234012,0.2374119907617569,-1.0706720352172852,0.3242760002613067,-29.190000534057617,-28.0,0.0350000001490116
11.391245847298716,0.2264319956302642,-1.2575759887695312,0.3623400032520294,-18.270000457763672,-30.957500457763672,2.117500066757202
11.41155109836342,0.2432679980993271,-1.4012919664382937,0.3318399786949157,-4.182499885559082,-32.07749938964844,-9.69499969482422
11.431856349428124,0.2354599982500076,-1.3385839462280271,0.3516039848327636,4.375,-35.875,-28.06999969482422
11.452161600492827,0.2054480016231537,-1.2417160272598269,0.2010560035705566,1.9600000381469729,-34.474998474121094,-32.375
11.472466851557531,0.2715719938278198,-1.1885240077972412,0.037331998348236,5.057499885559082,-27.52750015258789,-21.332500457763672
11.492772102622235,0.2396079897880554,-1.0826280117034912,0.0261080004274845,20.8075008392334,-28.89249992370605,-5.949999809265137
11.513077353686938,0.1376159936189651,-1.0318759679794312,0.018300000578165,38.90250015258789,-40.845001220703125,8.662500381469727
11.533382604751642,-0.0212280005216598,-1.0257760286331177,0.0275719985365867,52.37749862670898,-47.61750030517578,16.030000686645508
11.553687855816346,-0.1725080013275146,-0.929152011871338,0.1798280030488968,58.02999877929688,-46.04249954223633,12.792500495910645
11.57399310688105,-0.1485960036516189,-0.8640039563179016,0.2476599961519241,53.060001373291016,-37.32749938964844,6.317500114440918
11.594298357945753,-0.0007319999858736,-0.8945040106773376,0.2622999846935272,49.33250045776367,-19.582500457763672,7.909999847412109
11.614603609010457,0.0922319963574409,-0.9149999618530272,0.2608360052108764,45.51750183105469,-1.2599999904632568,17.202499389648438
11.63490886007516,0.1503039896488189,-0.9169519543647766,0.2327760010957718,39.567501068115234,4.164999961853027,26.302499771118164
11.655214111139864,0.1510359942913055,-0.9201239943504332,0.2232600003480911,35.560001373291016,5.197500228881836,27.94750022888184
11.675519362204568,0.1442039906978607,-0.9518439769744872,0.2476599961519241,26.98500061035156,3.2725000381469727,27.825000762939453
11.695824613269272,0.1036999970674514,-0.9991799592971802,0.301827996969223,22.01499938964844,1.0850000381469729,24.13249969482422
11.716129864333976,0.0690519958734512,-0.9132919907569884,0.3696599900722503,27.790000915527344,2.572499990463257,13.912500381469728
11.73643511539868,0.0280600003898143,-0.8339920043945312,0.3867399990558624,27.475000381469727,6.107500076293945,7.0
11.756740366463383,-0.0300120003521442,-0.8088600039482117,0.3564839959144592,18.67250061035156,8.050000190734863,9.782500267028809
11.777045617528087,-0.0795440003275871,-0.8149600028991699,0.3611199855804443,9.607500076293944,7.857500076293945,15.662500381469728
11.79735086859279,-0.099551998078823,-0.8247199654579163,0.3864960074424743,5.337500095367432,4.427500247955322,18.82999992370605
11.817656119657494,-0.08661999553442,-0.8164240121841431,0.3974759876728058,4.619999885559082,-1.399999976158142,18.5674991607666
11.837961370722198,-0.0563639998435974,-0.8051999807357788,0.3857640027999878,2.484999895095825,-5.53000020980835,17.639999389648438
11.858266621786901,0.0263519994914531,-0.8330159783363342,0.3699039816856384,-3.2725000381469727,-7.017499923706055,12.197500228881836
11.878571872851605,0.052947998046875,-0.8359439969062805,0.3786879777908325,0.2975000143051147,-9.537500381469728,4.340000152587891
11.898877123916309,0.090279996395111,-0.8281359672546387,0.4023559987545013,1.0850000381469729,-14.332500457763672,-2.870000123977661
11.919182374981013,0.1024799942970275,-0.8527799844741821,0.4174839854240417,-2.8350000381469727,-17.587499618530273,-5.302500247955322
11.939487626045716,0.0797879993915557,-0.8666880130767822,0.4667719900608063,-4.025000095367432,-19.46000099182129,-3.990000009536743
11.95979287711042,0.0436760000884532,-0.907435953617096,0.4909279942512512,-3.0450000762939453,-20.475000381469727,-1.8550000190734863
11.980098128175124,0.0319640003144741,-0.94159597158432,0.4831199944019317,0.8924999833106995,-18.725000381469727,-0.0175000000745058
12.000403379239827,0.0500199981033802,-0.9401319622993468,0.4816559851169586,5.162499904632568,-15.732500076293944,1.1725000143051147
12.020708630304531,0.0966240018606185,-0.9420839548110962,0.4923920035362243,6.737500190734863,-12.582500457763672,1.1725000143051147
12.041013881369235,0.1249279975891113,-0.9403759837150574,0.4919039905071258,7.087500095367432,-7.735000133514404,0.7350000143051147
12.061319132433939,0.1268799901008606,-0.9311040043830872,0.5067880153656006,5.914999961853027,-5.039999961853027,-0.5074999928474426
12.081624383498642,0.0878399983048439,-1.0177240371704102,0.5302119851112366,0.2800000011920929,-5.127500057220459,-1.2599999904632568
12.101929634563346,0.0075639998540282,-1.246351957321167,0.5163040161132812,-2.712500095367432,-6.037499904632568,-3.0975000858306885
12.12223488562805,-0.0710039958357811,-1.3986079692840576,0.5443639755249023,7.034999847412109,-7.647500038146973,-2.432500123977661
12.142540136692753,-0.2871879935264587,-1.285391926765442,0.4499360024929046,23.537500381469727,-17.079999923706055,1.9774999618530276
12.162845387757457,-0.3840560019016266,-0.8876720070838928,0.3828359842300415,42.89250183105469,-38.09749984741211,-4.340000152587891
12.18315063882216,-0.2796239852905273,-0.583404004573822,0.2971920073032379,40.775001525878906,-43.977500915527344,-12.28499984741211
12.203455889886865,-0.1024799942970275,-0.4396879971027374,0.2613239884376526,18.934999465942383,-48.00249862670898,-17.727500915527344
12.223761140951568,0.1315159946680069,-0.6997919678688049,0.2869440019130707,-13.789999961853027,-50.540000915527344,-10.114999771118164
12.244066392016272,0.2230159938335418,-1.152411937713623,0.2210640013217926,-25.00749969482422,-49.78749847412109,13.230000495910645
12.264371643080976,0.1427399963140487,-1.2953959703445437,0.1771439909934997,-0.7524999976158142,-58.15250015258789,24.780000686645508
12.28467689414568,0.1134599968791008,-1.234395980834961,0.2847479879856109,29.155000686645508,-72.625,19.89750099182129
12.304982145210383,0.1078479960560798,-1.001863956451416,0.4391999840736389,46.84749984741211,-77.9625015258789,6.090000152587891
12.325287396275087,0.0424560010433197,-0.8342359662055969,0.4538399875164032,44.747501373291016,-78.03250122070312,-7.332499980926514
12.34559264733979,0.0348920002579689,-0.8442400097846985,0.3821039795875549,26.162500381469727,-79.67749786376953,-10.220000267028809
12.365897898404494,0.0841799974441528,-0.9023119807243348,0.3035359978675842,6.894999980926514,-81.18250274658203,-1.1375000476837158
12.386203149469198,0.119559995830059,-0.8896239995956421,0.2632759809494018,-3.5,-81.11250305175781,13.387499809265137
12.406508400533902,0.134443998336792,-0.8708359599113464,0.2813319861888885,-8.487500190734863,-82.30249786376953,24.114999771118164
12.426813651598605,0.1715319901704788,-0.8988959789276123,0.3081719875335693,-10.447500228881836,-84.85749816894531,26.040000915527344
12.44711890266331,0.1969079971313476,-0.8203279972076416,0.3164680004119873,-7.227499961853027,-85.27750396728516,25.112499237060547
12.467424153728013,0.2032520025968551,-0.8044679760932922,0.2640079855918884,-18.51499938964844,-77.50749969482422,36.067501068115234
12.487729404792717,0.2032520025968551,-0.8152039647102356,0.2696200013160705,-21.84000015258789,-70.69999694824219,44.25749969482422
12.50803465585742,0.2210640013217926,-0.859611988067627,0.2876760065555572,-23.362499237060547,-68.18000030517578,50.6974983215332
12.528339906922124,0.264983981847763,-0.8903560042381287,0.2989000082015991,-19.372499465942383,-66.9375,55.19499969482422
12.548645157986828,0.2764520049095154,-0.8957239985466003,0.3071959912776947,-13.59749984741211,-62.720001220703125,58.59000015258789
12.568950409051531,0.2332639992237091,-0.8854759931564331,0.3508719801902771,-10.272500038146973,-56.13999938964844,60.11249923706055
12.589255660116235,0.185928001999855,-0.892795979976654,0.4435919821262359,-11.88249969482422,-50.942501068115234,61.51250076293945
12.609560911180939,0.2076440006494522,-0.9437919855117798,0.4762879908084869,-15.609999656677246,-48.5625,60.532501220703125
12.629866162245643,0.2252119928598404,-0.9823439717292786,0.3896679878234863,-17.850000381469727,-48.1775016784668,53.25249862670898
12.650171413310346,0.2098399996757507,-0.9960079789161682,0.3140279948711395,-18.82999992370605,-52.56999969482422,41.45750045776367
12.67047666437505,0.1930039972066879,-1.024067997932434,0.3313519954681396,-18.934999465942383,-60.25249862670898,33.599998474121094
12.690781915439754,0.1771439909934997,-1.00381600856781,0.3786879777908325,-15.207500457763672,-66.46500396728516,28.700000762939453
12.711087166504457,0.1593319922685623,-0.9628239870071412,0.4043079912662506,-8.977499961853027,-70.66500091552734,26.65250015258789
12.731392417569161,0.1464000046253204,-0.93012797832489,0.3745400011539459,-3.0274999141693115,-73.36000061035156,27.982500076293945
12.751697668633865,0.1173639968037605,-0.937936007976532,0.321835994720459,1.924999952316284,-76.63249969482422,30.520000457763672
12.772002919698568,0.0275719985365867,-1.10971200466156,0.27742800116539,1.4524999856948853,-81.58499908447266,32.619998931884766
12.792308170763272,0.0422119982540607,-1.2126799821853638,0.2535159885883331,5.53000020980835,-86.2925033569336,23.32749938964844
12.812613421827976,0.0790559947490692,-1.181447982788086,0.2271640002727508,8.4350004196167,-81.83000183105469,5.022500038146973
12.83291867289268,0.1019919961690902,-1.1150799989700315,0.1834879964590072,6.772500038146973,-76.77249908447266,-6.107500076293945
12.853223923957383,0.1886119991540908,-1.0687199831008911,0.0783239975571632,8.78499984741211,-73.23750305175781,-1.0325000286102295
12.873529175022087,0.1920280009508133,-1.00381600856781,0.1251720041036605,18.497499465942383,-69.70249938964844,13.300000190734863
12.89383442608679,0.157379999756813,-1.024799942970276,0.2086199969053268,27.09000015258789,-69.8949966430664,31.325000762939453
12.914139677151494,0.0222040005028247,-1.053347945213318,0.2588839828968048,36.2599983215332,-67.30500030517578,41.0724983215332
12.934444928216198,-0.1163880005478859,-1.0555440187454224,0.2866999804973602,41.05500030517578,-66.43000030517578,39.72499847412109
12.954750179280902,-0.1690919995307922,-0.9674599766731262,0.2452199906110763,44.08250045776367,-69.0199966430664,32.79500198364258
12.975055430345606,-0.1283439993858337,-0.8437519669532776,0.2130119949579239,42.17499923706055,-72.04750061035156,33.38999938964844
12.99536068141031,-0.0634399950504303,-0.6993039846420288,0.2364359945058822,32.47999954223633,-70.01750183105469,42.03499984741211
13.015665932475013,-0.0595359988510608,-0.6548959612846375,0.2640079855918884,10.97249984741211,-66.0625,54.12749862670898
13.035971183539717,-0.0729559957981109,-0.770796000957489,0.3130519986152649,-14.0,-67.79499816894531,60.39250183105469
13.05627643460442,-0.0583159998059272,-0.9911279678344728,0.3362320065498352,-25.30500030517578,-73.48249816894531,59.13249969482422
13.076581685669124,-0.0300120003521442,-1.092144012451172,0.3925960063934326,2.747499942779541,-80.81500244140625,43.22499847412109
13.096886936733828,-0.0395279973745346,-1.016503930091858,0.3889359831809997,17.9375,-83.38749694824219,35.209999084472656
13.117192187798532,-0.0590479969978332,-0.9476959705352784,0.3789319992065429,24.63999938964844,-85.4175033569336,32.095001220703125
13.137497438863235,-0.0749079957604408,-0.8813279867172241,0.4011359810829162,25.549999237060547,-87.27249908447266,34.59749984741211
13.157802689927939,-0.0683199986815452,-0.8108119964599609,0.4013800024986267,21.262500762939453,-88.12999725341797,39.584999084472656
13.178107940992643,-0.0751519948244094,-0.8047119975090027,0.3699039816856384,12.057499885559082,-87.97250366210938,43.76750183105469
13.198413192057346,-0.0836919993162155,-0.8156920075416565,0.3577039837837219,4.497499942779541,-86.83499908447266,44.72999954223633
13.21871844312205,-0.0917439982295036,-0.8691279888153076,0.3803959786891937,1.5575000047683716,-83.82499694824219,40.897499084472656
13.239023694186754,-0.0914999991655349,-0.907435953617096,0.3896679878234863,4.96999979019165,-80.86750030517578,33.6875
13.259328945251458,-0.0734440013766288,-0.9391559958457948,0.3840560019016266,9.432499885559082,-81.41000366210938,27.26499938964844
13.279634196316161,-0.0353799983859062,-0.9616039991378784,0.3955239951610565,11.899999618530272,-84.38500213623047,23.012500762939453
13.299939447380865,0.0231800004839897,-0.9154880046844482,0.4047960042953491,15.119999885559082,-84.62999725341797,18.67250061035156
13.320244698445569,0.0990639999508857,-0.8610759973526001,0.4143120050430298,17.079999923706055,-81.9175033569336,14.36750030517578
13.340549949510272,0.1651879996061325,-0.8505839705467224,0.4382239878177643,18.34000015258789,-78.26000213623047,9.170000076293944
13.360855200574976,0.1559159904718399,-0.8452159762382507,0.4455440044403076,20.684999465942383,-75.51249694824219,3.6575000286102295
13.38116045163968,0.0917439982295036,-0.8679080009460449,0.4330999851226806,20.28249931335449,-74.7074966430664,0.6825000047683716
13.401465702704384,0.0348920002579689,-0.8937720060348511,0.4289519786834717,16.642499923706055,-74.0425033569336,0.6825000047683716
13.421770953769087,0.0312319993972778,-1.014796018600464,0.4538399875164032,8.399999618530273,-70.27999877929688,5.897500038146973
13.442076204833791,0.056607998907566,-1.2356159687042236,0.5048359632492065,1.5750000476837158,-60.532501220703125,20.545000076293945
13.462381455898495,-0.0946719944477081,-1.274411916732788,0.4243159890174866,10.09749984741211,-53.95249938964844,34.877498626708984
13.482686706963198,-0.2669360041618347,-1.0172359943389893,0.3969880044460296,27.177499771118164,-66.53500366210938,28.997499465942383
13.502991958027902,-0.2210640013217926,-0.8381400108337402,0.4445679783821106,22.487499237060547,-76.07250213623047,14.017499923706056
13.523297209092606,-0.0949160009622573,-0.8923079967498779,0.3979640007019043,7.909999847412109,-73.1500015258789,5.6875
13.54360246015731,0.0417240001261234,-1.0140639543533323,0.2698639929294586,1.924999952316284,-71.2074966430664,3.6050000190734863
13.563907711222013,0.1254159957170486,-0.98990797996521,0.1786080002784729,8.050000190734863,-71.06749725341797,4.829999923706055
13.584212962286717,0.1381039917469024,-0.9013359546661376,0.1637239903211593,13.842499732971191,-74.23500061035156,4.934999942779541
13.60451821335142,0.1439599990844726,-0.875715970993042,0.2366800010204315,9.625,-77.48999786376953,9.537500381469728
13.624823464416124,0.0993079990148544,-0.9030439853668212,0.354775995016098,5.320000171661377,-76.98249816894531,13.982500076293944
13.645128715480828,0.0527039989829063,-0.9393999576568604,0.4255359768867492,4.795000076293945,-78.38249969482422,15.767499923706056
13.665433966545532,0.0707599967718124,-1.0279719829559326,0.4157759845256805,7.0,-80.76249694824219,15.417500495910645
13.685739217610235,0.1768999993801117,-0.9833199977874756,0.3084160089492798,23.450000762939453,-81.14749908447266,8.574999809265137
13.70604446867494,0.2022759914398193,-0.8759599924087524,0.2630319893360138,22.364999771118164,-81.09500122070312,7.525000095367432
13.726349719739643,0.1983719915151596,-0.848143994808197,0.2576639950275421,10.482500076293944,-80.79750061035156,11.707500457763672
13.746654970804347,0.1651879996061325,-0.8435080051422119,0.2625440061092376,-2.047499895095825,-80.09750366210938,17.587499618530273
13.76696022186905,0.1254159957170486,-0.8627839684486389,0.2989000082015991,-10.255000114440918,-79.99250030517578,23.32749938964844
13.787265472933754,0.1171199977397918,-0.8879159688949585,0.3376959860324859,-13.212499618530272,-80.23750305175781,28.227500915527344
13.807570723998458,0.1422519981861114,-0.9059720039367676,0.3601439893245697,-10.43000030517578,-80.55249786376953,30.39750099182129
13.827875975063161,0.1944679915904998,-0.90475195646286,0.3342799842357635,-5.320000171661377,-77.27999877929688,30.64249992370605
13.848181226127865,0.240339994430542,-0.8913319706916809,0.2962159812450409,-2.992500066757202,-71.50499725341797,32.34000015258789
13.868486477192569,0.2764520049095154,-0.8732759952545166,0.2881639897823334,-4.65500020980835,-66.5875015258789,35.665000915527344
13.888791728257273,0.2942639887332916,-0.8664439916610718,0.3050000071525574,-7.804999828338623,-63.17499923706055,39.060001373291016
13.909096979321976,0.3057319819927215,-0.8998720049858093,0.3235439956188202,-10.202500343322754,-58.869998931884766,41.22999954223633
13.92940223038668,0.2957279980182647,-0.8825479745864868,0.3247639834880829,-8.505000114440918,-53.28749847412109,42.47249984741211
13.949707481451384,0.2601040005683899,-0.8988959789276123,0.3233000040054321,-7.945000171661377,-50.102500915527344,45.255001068115234
13.970012732516087,0.2225279957056045,-0.9140239953994752,0.3213479816913605,-6.440000057220459,-49.087501525878906,47.72249984741211
13.990317983580791,0.1744599938392639,-0.895967960357666,0.3476999998092651,-4.952499866485596,-48.82500076293945,49.525001525878906
14.010623234645495,0.1341999918222427,-0.896943986415863,0.3906439840793609,-6.177500247955322,-51.432498931884766,50.85499954223633
14.030928485710199,0.1705559939146042,-0.9603840112686156,0.3745400011539459,-9.887499809265137,-54.057498931884766,49.61249923706055
14.051233736774902,0.2481479942798614,-1.011379957199097,0.2798680067062378,-9.100000381469728,-53.23500061035156,43.71500015258789
14.071538987839606,0.2793799936771393,-1.004547953605652,0.2479040026664734,-4.445000171661377,-55.00249862670898,36.907501220703125
14.09184423890431,0.2830399870872497,-0.9777079820632936,0.2754760086536407,-1.2074999809265137,-60.165000915527344,32.567501068115234
14.112149489969013,0.2842600047588348,-0.903775990009308,0.2954840064048767,0.875,-64.54000091552734,29.942501068115234
14.132454741033717,0.2571759819984436,-0.9193919897079468,0.2557120025157928,-2.677500009536743,-66.23750305175781,30.274999618530277
14.15275999209842,0.1163880005478859,-1.011379957199097,0.2093520015478134,-7.087500095367432,-68.61750030517578,30.607500076293945
14.173065243163125,-0.0392839983105659,-1.0892159938812256,0.2947520017623901,-16.940000534057617,-74.23500061035156,25.655000686645508
14.193370494227828,-0.0517279990017414,-1.1236200332641602,0.3450160026550293,-28.2450008392334,-74.23500061035156,10.342499732971191
14.213675745292532,0.0126879997551441,-1.0772600173950195,0.236191987991333,-24.674999237060547,-65.90499877929688,-7.139999866485596
14.233980996357236,0.0080519998446106,-1.013819932937622,0.1493279933929443,-10.832500457763672,-58.852500915527344,-12.61750030517578
14.25428624742194,-0.0165919996798038,-0.9884439706802368,0.1637239903211593,1.0149999856948853,-64.13749694824219,-4.21750020980835
14.274591498486643,-0.0407480001449584,-1.0311440229415894,0.2174039930105209,12.074999809265137,-72.64250183105469,9.7475004196167
14.294896749551347,-0.0990639999508857,-1.1324039697647097,0.3296439945697784,32.51499938964844,-69.54499816894531,20.895000457763672
14.31520200061605,-0.0946719944477081,-1.1070280075073242,0.3164680004119873,40.42499923706055,-64.76750183105469,18.6200008392334
14.335507251680754,-0.0727119967341423,-1.0150399208068848,0.2798680067062378,47.54750061035156,-63.42000198364258,16.852500915527344
14.355812502745458,-0.0380639992654323,-0.8691279888153076,0.2901159822940826,48.352500915527344,-63.087501525878906,18.84749984741211
14.376117753810162,-0.0148839997127652,-0.8022719621658325,0.3054879903793335,38.16749954223633,-60.65499877929688,25.58500099182129
14.396423004874865,-0.0141519997268915,-0.8112999796867371,0.3374519944190979,24.36000061035156,-57.505001068115234,32.98749923706055
14.416728255939569,-0.0087839998304843,-0.8361879587173462,0.3999159932136535,12.442500114440918,-55.807498931884766,36.837501525878906
14.437033507004273,0.0078079998493194,-0.888159990310669,0.4391999840736389,5.880000114440918,-54.932498931884766,34.772499084472656
14.457338758068977,0.0100039998069405,-0.9345200061798096,0.4443239867687225,9.677499771118164,-51.869998931884766,27.77250099182129
14.47764400913368,-0.0056119998916983,-0.9159759879112244,0.4099199771881103,18.059999465942383,-47.810001373291016,21.15749931335449
14.497949260198384,-0.0251320004463195,-0.8827919960021973,0.3891800045967102,20.684999465942383,-45.9900016784668,19.4424991607666
14.518254511263088,-0.046604000031948,-0.8493639826774597,0.3903999924659729,17.552499771118164,-46.72499847412109,21.104999542236328
14.538559762327791,-0.0609999969601631,-0.839847981929779,0.4104079902172088,10.09749984741211,-49.80500030517578,23.34499931335449
14.558865013392495,-0.0595359988510608,-0.8493639826774597,0.4284639954566955,4.550000190734863,-53.84749984741211,21.927499771118164
14.579170264457199,-0.0268399994820356,-0.8827919960021973,0.4382239878177643,1.680000066757202,-56.89250183105469,19.127500534057617
14.599475515521902,0.0117119997739791,-0.9149999618530272,0.4431039988994598,1.784999966621399,-55.63249969482422,18.88249969482422
14.619780766586606,0.0366000011563301,-0.9106079936027528,0.440420001745224,3.7799999713897705,-51.59000015258789,21.40250015258789
14.64008601765131,0.0270840004086494,-0.8857199549674988,0.427975982427597,4.304999828338623,-48.5099983215332,23.625
14.660391268716014,0.0217159986495971,-0.8486319780349731,0.3894239962100982,2.9749999046325684,-47.775001525878906,23.502500534057617
14.680696519780717,0.0300120003521442,-0.8359439969062805,0.3628279864788055,-0.5774999856948853,-48.212501525878906,21.787500381469727
14.701001770845421,0.0627079978585243,-0.8542439937591553,0.3769800066947937,-5.074999809265137,-49.84000015258789,18.427499771118164
14.721307021910125,0.095891997218132,-0.905239999294281,0.3967439830303192,-8.8725004196167,-50.505001068115234,14.420000076293944
14.741612272974828,0.0773480013012886,-0.9967399835586548,0.3835679888725281,-11.217499732971191,-49.4375,11.864999771118164
14.761917524039532,0.0527039989829063,-1.1001960039138794,0.4004040062427521,-9.362500190734863,-48.91249847412109,10.202500343322754
14.782222775104236,0.1261480003595352,-1.2241480350494385,0.4465200006961822,-5.722499847412109,-44.09999847412109,11.515000343322754
14.80252802616894,0.1015039980411529,-1.2419599294662476,0.4240719974040985,5.110000133514404,-37.99250030517578,14.770000457763672
14.822833277233643,-0.0463600009679794,-1.0826280117034912,0.3857640027999878,23.625,-40.25,9.817500114440918
14.843138528298347,-0.1278560012578964,-0.8437519669532776,0.3972319960594177,34.369998931884766,-45.67499923706055,-0.1924999952316284
14.86344377936305,-0.1190719977021217,-0.7376120090484619,0.3825919926166534,27.895000457763672,-46.47999954223633,-6.352499961853027
14.883749030427754,-0.0590479969978332,-0.8030039668083191,0.3611199855804443,16.362499237060547,-48.5099983215332,-4.53249979019165
14.904054281492458,0.1556719988584518,-0.9306159615516664,0.3540439903736114,15.3125,-43.3125,9.817500114440918
14.924359532557162,0.1263919919729232,-0.901579976081848,0.305976003408432,12.337499618530272,-43.45249938964844,7.595000267028809
14.944664783621866,0.0588039979338645,-0.929639995098114,0.2300919890403747,-1.3825000524520874,-50.400001525878906,3.5174999237060547
14.96497003468657,0.0326960012316703,-0.9230519533157348,0.2444880008697509,-10.09749984741211,-54.42499923706055,2.0999999046325684
14.985275285751273,0.0649039968848228,-0.9169519543647766,0.3111000061035156,-11.130000114440918,-44.59000015258789,3.674999952316284
15.005580536815977,0.1239520013332367,-0.9562360048294068,0.330375999212265,-6.982500076293945,-34.125,7.017499923706055
15.02588578788068,0.1764120012521743,-0.9860039949417114,0.3301320075988769,2.0999999046325684,-34.02000045776367,8.592499732971191
15.046191038945384,0.2039839923381805,-0.9747799634933472,0.3294000029563904,8.539999961853027,-42.0,8.539999961853027
15.066496290010088,0.187391996383667,-1.0182119607925415,0.3513599932193756,6.40500020980835,-51.415000915527344,8.3125
15.086801541074792,0.1839759945869445,-1.0391960144042969,0.3572160005569458,6.650000095367432,-58.380001068115234,3.6575000286102295
15.107106792139495,0.1851959973573684,-0.9935680031776428,0.3586799800395965,10.02750015258789,-61.022499084472656,-1.662500023841858
15.127412043204199,0.1864160001277923,-0.9537959694862366,0.3520919978618622,12.092499732971191,-62.19499969482422,-1.924999952316284
15.147717294268903,0.1708000004291534,-0.8854759931564331,0.334524005651474,13.877500534057615,-65.16999816894531,2.0999999046325684
15.168022545333606,0.1612839996814727,-0.8188639879226685,0.3096359968185425,13.142499923706056,-69.38749694824219,10.692500114440918
15.18832779639831,0.1688479930162429,-0.8215479850769043,0.2737680077552795,6.667500019073486,-71.48750305175781,22.52250099182129
15.208633047463014,0.1712879985570907,-0.8613199591636658,0.2520520091056824,0.1574999988079071,-72.66000366210938,32.567501068115234
15.228938298527718,0.1764120012521743,-0.8974319696426392,0.2461960017681121,-2.782500028610229,-74.62000274658203,38.63999938964844
15.249243549592421,0.1876360028982162,-0.9225639700889589,0.2710839807987213,-1.5399999618530271,-77.15750122070312,40.96749877929688
15.269548800657125,0.1886119991540908,-0.93012797832489,0.3084160089492798,2.852499961853028,-78.17250061035156,42.78749847412109
15.289854051721829,0.2056919932365417,-0.9147560000419616,0.3350119888782501,7.735000133514404,-78.15499877929688,45.53499984741211
15.310159302786532,0.2249680012464523,-0.9171959757804872,0.3286679983139038,10.0625,-77.20999908447266,49.42000198364258
15.330464553851236,0.230335995554924,-0.9191479682922364,0.3079279959201813,11.532500267028809,-76.24749755859375,52.9375
15.35076980491594,0.2127679884433746,-0.952575981616974,0.31768798828125,11.182499885559082,-76.2125015258789,54.775001525878906
15.371075055980643,0.1829999983310699,-0.969655990600586,0.3486759960651397,11.322500228881836,-78.43499755859375,54.26750183105469
15.391380307045347,0.1715319901704788,-0.9523319602012634,0.3511160016059875,10.744999885559082,-82.31999969482422,51.99250030517578
15.411685558110051,0.1947119981050491,-0.9569680094718932,0.2581520080566406,9.432499885559082,-83.80750274658203,50.76750183105469
15.431990809174755,0.1798280030488968,-0.9896639585494996,0.153231993317604,4.690000057220459,-80.70999908447266,50.78499984741211
15.452296060239458,0.0570959970355033,-1.1531440019607544,0.118827998638153,-10.605000495910645,-77.71749877929688,48.22999954223633
15.472601311304162,-0.0197639986872673,-1.2639199495315552,0.1871479898691177,-17.219999313354492,-80.76249694824219,33.14500045776367
15.492906562368866,-0.0595359988510608,-1.0701839923858645,0.2901159822940826,1.3300000429153442,-88.07749938964844,15.225000381469728
15.51321181343357,-0.0509959980845451,-0.8327719569206238,0.3586799800395965,18.165000915527344,-93.2750015258789,23.607500076293945
15.533517064498273,-0.0546559989452362,-0.8100799918174744,0.297679990530014,16.99250030517578,-82.73999786376953,34.439998626708984
15.553822315562977,-0.047335997223854,-0.8313080072402954,0.2766959965229034,8.015000343322754,-70.05249786376953,43.01499938964844
15.57412756662768,-0.0175679996609687,-0.9225639700889589,0.3162239789962768,-7.787499904632568,-64.97750091552734,46.40999984741211
15.594432817692384,0.0302559994161129,-1.0287039279937744,0.4008919894695282,-12.3725004196167,-68.28500366210938,41.282501220703125
15.614738068757088,0.0265959985554218,-1.0257760286331177,0.4094319939613342,-2.012500047683716,-67.32250213623047,29.3125
15.635043319821792,0.0348920002579689,-0.9391559958457948,0.3938159942626953,6.510000228881836,-61.52999877929688,18.40999984741211
15.655348570886495,0.032940000295639,-0.8913319706916809,0.3872279822826385,3.5174999237060547,-52.709999084472656,16.362499237060547
15.6756538219512,0.0263519994914531,-0.8991400003433228,0.3945479989051819,-1.225000023841858,-47.21500015258789,18.88249969482422
15.695959073015903,0.0846679955720901,-1.0128439664840698,0.4135800004005432,-4.269999980926514,-43.18999862670898,25.09499931335449
15.716264324080607,0.0478239990770816,-0.954039990901947,0.4030880033969879,5.057499885559082,-38.657501220703125,25.23500061035156
15.73656957514531,0.0082959998399019,-0.87254399061203,0.3564839959144592,12.1274995803833,-36.15499877929688,18.14750099182129
15.756874826210014,0.006343999877572,-0.8381400108337402,0.3028039932250976,9.730000495910645,-35.77000045776367,13.369999885559082
15.777180077274718,0.0175679996609687,-0.8493639826774597,0.3269599974155426,1.4874999523162842,-32.98749923706055,13.422499656677246
15.797485328339421,0.0422119982540607,-0.8952359557151794,0.3669759929180145,-5.162499904632568,-27.15999984741211,15.732500076293944
15.817790579404125,0.0653920024633407,-0.9149999618530272,0.3769800066947937,-4.392499923706055,-23.65999984741211,15.470000267028809
15.838095830468829,0.0761279985308647,-0.9335439801216124,0.3586799800395965,0.3675000071525574,-21.57749938964844,11.357500076293944
15.858401081533533,0.0702719986438751,-0.9484279751777648,0.3516039848327636,5.96750020980835,-21.559999465942383,4.8125
15.878706332598236,0.0668559968471527,-0.9367159605026244,0.366487979888916,9.607500076293944,-22.225000381469727,-0.4200000166893005
15.89901158366294,0.042943999171257,-0.8837679624557495,0.3745400011539459,6.720000267028809,-20.125,-1.1549999713897705
15.919316834727644,0.0175679996609687,-0.8676639795303345,0.3655119836330414,-3.377500057220459,-17.604999542236328,1.8025000095367432
15.939622085792347,0.0058559998869895,-0.8859639763832092,0.3740519881248474,-11.987500190734863,-17.237499237060547,4.147500038146973
15.959927336857051,0.0151279997080564,-0.93232399225235,0.3845439851284027,-14.857500076293944,-17.219999313354492,2.8350000381469727
15.980232587921755,0.0202520005404949,-1.0438319444656372,0.3672199845314026,-14.40250015258789,-16.905000686645508,1.0674999952316284
16.000537838986457,0.0222040005028247,-1.1519240140914917,0.3413559794425964,-10.202500343322754,-16.59000015258789,2.1524999141693115
16.02084309005116,0.0092719998210668,-1.1807159185409546,0.317931979894638,-1.7675000429153442,-15.942500114440918,5.232500076293945
16.04114834111586,-0.0051239999011158,-1.0689640045166016,0.3181760013103485,10.079999923706056,-14.682499885559082,4.847499847412109
16.061453592180563,0.0163480006158351,-0.9145119786262512,0.3513599932193756,15.907500267028809,-13.475000381469728,0.6474999785423279
16.081758843245265,0.0341599993407726,-0.8488759994506836,0.3657560050487518,13.230000495910645,-11.182499885559082,-3.692500114440918
16.102064094309966,0.0505079999566078,-0.8691279888153076,0.3696599900722503,8.539999961853027,-9.835000038146973,-6.159999847412109
16.12236934537467,0.0834480002522468,-0.949891984462738,0.3620959818363189,7.682499885559082,-10.779999732971191,-7.175000190734863
16.14267459643937,0.0732000023126602,-0.933788001537323,0.3486759960651397,8.837499618530273,-10.692500114440918,-7.0
16.162979847504072,0.0448959991335868,-0.9140239953994752,0.3279359936714172,6.789999961853027,-10.167500495910645,-6.195000171661377
16.183285098568774,0.0348920002579689,-0.9281759858131408,0.3193959891796112,2.362499952316284,-10.1850004196167,-4.445000171661377
16.203590349633476,0.0387960001826286,-0.9523319602012634,0.3252519965171814,0.2450000047683715,-9.712499618530272,-4.042500019073486
16.223895600698178,0.0468479990959167,-0.9611159563064576,0.3325719833374023,1.4524999856948853,-9.625,-5.547500133514404
16.24420085176288,0.0578279979526996,-0.9584319591522216,0.330375999212265,3.4825000762939453,-10.02750015258789,-6.807499885559082
16.264506102827582,0.0570959970355033,-0.9806360006332396,0.3469679951667785,2.9049999713897705,-11.515000343322754,-9.65999984741211
16.284811353892284,0.0717360004782676,-0.9745360016822816,0.3181760013103485,4.742499828338623,-11.899999618530272,-13.125
16.305116604956986,0.0922319963574409,-0.9430599808692932,0.2874319851398468,7.822500228881836,-8.574999809265137,-14.5600004196167
16.325421856021688,0.1071159988641738,-0.9184159636497498,0.3071959912776947,5.512499809265137,-6.789999961853027,-13.404999732971191
16.34572710708639,0.1068719998002052,-0.9579439759254456,0.326227992773056,1.9600000381469729,-9.204999923706056,-12.65250015258789
16.36603235815109,0.1063839942216873,-0.9616039991378784,0.3191519975662231,3.762500047683716,-8.890000343322754,-14.454999923706056
16.386337609215794,0.0944279953837394,-0.9537959694862366,0.2810879945755005,6.212500095367432,-5.897500038146973,-16.012500762939453
16.406642860280495,0.0949160009622573,-0.9123159646987916,0.2801119983196258,7.105000019073486,-4.550000190734863,-16.607500076293945
16.426948111345197,0.1073599979281425,-0.8847439885139465,0.2820639908313751,4.09499979019165,-3.7274999618530273,-15.399999618530272
16.4472533624099,0.1607960015535354,-0.8937720060348511,0.2991439998149872,-3.797500133514404,-1.1549999713897705,-7.210000038146973
16.4675586134746,0.1783639937639236,-0.9123159646987916,0.3086600005626678,-3.745000123977661,1.662500023841858,-3.5350000858306885
16.487863864539303,0.1937360018491745,-0.9376919865608216,0.3276920020580292,-2.380000114440918,5.425000190734863,-0.875
16.508169115604005,0.1888559907674789,-0.9657520055770874,0.3518480062484741,-2.380000114440918,6.824999809265137,0.7175000309944153
16.528474366668707,0.1973959952592849,-0.9960079789161682,0.3852759897708893,-2.6075000762939453,5.617499828338623,-0.2450000047683715
16.54877961773341,0.2232600003480911,-1.0111359357833862,0.3879599869251251,0.9975000023841858,4.514999866485596,-4.409999847412109
16.56908486879811,0.2444880008697509,-0.958187997341156,0.3669759929180145,4.497499942779541,3.009999990463257,-8.592499732971191
16.589390119862813,0.2537599802017212,-0.9003599882125854,0.3677079975605011,2.677500009536743,0.262499988079071,-10.010000228881836
16.609695370927515,0.2420479953289032,-0.8437519669532776,0.3864960074424743,-0.3849999904632568,-2.992500066757202,-7.647500038146973
16.630000621992217,0.2320439964532852,-0.8359439969062805,0.4126040041446686,-2.047499895095825,-5.862500190734863,-1.5225000381469729
16.65030587305692,0.2254559993743896,-0.8305760025978088,0.4230960011482239,-0.332500010728836,-7.454999923706055,6.737500190734863
16.67061112412162,0.2056919932365417,-0.8317959904670715,0.4099199771881103,0.4724999964237213,-8.977499961853027,15.34749984741211
16.690916375186323,0.2178919911384582,-0.851315975189209,0.3735640048980713,-1.4175000190734863,-8.697500228881836,21.45499992370605
16.711221626251024,0.2525399923324585,-0.9250040054321288,0.2461960017681121,-6.737500190734863,4.637499809265137,26.0049991607666
16.731526877315726,0.1505479961633682,-1.0906800031661987,0.3184199929237366,-22.38249969482422,2.747499942779541,20.352500915527344
16.75183212838043,0.0707599967718124,-1.1541199684143066,0.2752319872379303,-36.994998931884766,-7.822500228881836,-1.4700000286102295
16.77213737944513,0.0753960013389587,-1.0284600257873535,0.2227720022201538,-32.30500030517578,-8.050000190734863,-22.0674991607666
16.792442630509832,0.1261480003595352,-0.8762039542198181,0.1720200031995773,-25.74250030517578,-5.460000038146973,-25.042499542236328
16.812747881574534,0.1510359942913055,-0.7600600123405457,0.1766559928655624,-25.375,-2.817500114440918,-12.022500038146973
16.833053132639236,0.1351760029792785,-0.895967960357666,0.2452199906110763,-31.920000076293945,-2.380000114440918,7.052500247955322
16.853358383703938,0.0736880004405975,-1.078724026679993,0.3369639813899994,-27.125,-3.7799999713897705,13.072500228881836
16.87366363476864,0.0295239984989166,-1.150215983390808,0.387472003698349,-10.954999923706056,-5.792500019073486,6.5625
16.893968885833342,0.0485559999942779,-1.0277279615402222,0.3481879830360412,7.857500076293945,-6.545000076293945,-0.4025000035762787
16.914274136898044,0.0761279985308647,-0.9142679572105408,0.2884079813957214,12.600000381469728,-3.762500047683716,1.924999952316284
16.934579387962746,0.1271239966154098,-0.8886479735374451,0.2625440061092376,8.505000114440918,-1.2074999809265137,7.980000019073486
16.954884639027448,0.1837320029735565,-0.8788880109786987,0.2427799999713897,5.005000114440918,4.025000095367432,10.710000038146973
16.97518989009215,0.2310680001974105,-0.8454599976539612,0.2461960017681121,1.4700000286102295,11.9350004196167,12.039999961853027
16.99549514115685,0.201787993311882,-0.8957239985466003,0.2222839891910553,-3.815000057220459,18.375,14.350000381469728
17.015800392221553,0.1415199935436248,-0.9345200061798096,0.2352159917354583,-5.127500057220459,21.787500381469727,14.47249984741211
17.036105643286255,0.0761279985308647,-0.9642879962921144,0.2500999867916107,-6.720000267028809,23.239999771118164,13.265000343322754
17.056410894350957,0.0121999997645616,-1.0243120193481443,0.2547360062599182,-10.272500038146973,23.39750099182129,9.292500495910645
17.07671614541566,-0.0165919996798038,-1.0777479410171509,0.2527839839458465,-11.725000381469728,19.89750099182129,2.012500047683716
17.09702139648036,-0.0065879998728632,-1.0704280138015747,0.2564440071582794,-10.0625,13.807499885559082,-5.460000038146973
17.117326647545063,0.0163480006158351,-1.0562759637832642,0.2644959986209869,-7.962500095367432,7.315000057220459,-8.8725004196167
17.137631898609765,0.0380639992654323,-1.0467599630355835,0.2596159875392914,-4.375,1.2599999904632568,-8.907500267028809
17.157937149674467,0.0583159998059272,-1.0230920314788818,0.2505879998207092,0.8050000071525574,-2.134999990463257,-6.894999980926514
17.17824240073917,0.0885719954967498,-0.9945439696311952,0.2481479942798614,5.09250020980835,-4.462500095367432,-2.992500066757202
17.19854765180387,0.1173639968037605,-0.9747799634933472,0.2522960007190704,8.522500038146973,-6.142499923706055,0.262499988079071
17.218852902868573,0.128831997513771,-0.9476959705352784,0.2557120025157928,10.8149995803833,-6.335000038146973,1.3300000429153442
17.239158153933275,0.1268799901008606,-0.924515962600708,0.2657159864902496,10.640000343322754,-5.494999885559082,1.347499966621399
17.259463404997977,0.1254159957170486,-0.9110959768295288,0.2757200002670288,8.680000305175781,-4.462500095367432,1.1725000143051147
17.27976865606268,0.1227319985628128,-0.9167079925537108,0.2803559899330139,5.897500038146973,-3.220000028610229,0.9800000190734864
17.30007390712738,0.1180959939956665,-0.9247599840164183,0.2862119972705841,3.5174999237060547,-2.275000095367432,0.8224999904632568
17.320379158192083,0.0968680009245872,-0.9381799697875975,0.2769399881362915,-0.1225000023841857,-2.362499952316284,1.399999976158142
17.340684409256784,0.0922319963574409,-0.9501360058784484,0.2705959975719452,-1.9075000286102293,-2.9049999713897705,1.680000066757202
17.360989660321486,0.0919879972934722,-0.96453195810318,0.2664479911327362,-2.5899999141693115,-3.132499933242798,1.9600000381469729
17.38129491138619,0.0973559990525245,-0.9684360027313232,0.2622999846935272,-2.380000114440918,-3.4124999046325684,2.484999895095825
17.40160016245089,0.104432001709938,-0.9698999524116516,0.2610799968242645,-1.9075000286102293,-3.5174999237060547,2.887500047683716
17.421905413515592,0.1080919951200485,-0.9713639616966248,0.2581520080566406,-1.2424999475479126,-2.940000057220459,3.325000047683716
17.442210664580294,0.1124840006232261,-0.9706319570541382,0.2610799968242645,-0.3849999904632568,-2.345000028610229,3.640000104904175
17.462515915644996,0.1154119968414306,-0.9684360027313232,0.2659600079059601,0.4025000035762787,-1.784999966621399,3.569999933242798
17.482821166709698,0.1141919940710067,-0.96697199344635,0.2705959975719452,1.0674999952316284,-1.3825000524520874,3.5350000858306885
17.5031264177744,0.1134599968791008,-0.962336003780365,0.2723039984703064,1.4350000619888306,-0.9975000023841858,3.4124999046325684
17.523431668839102,0.109555996954441,-0.9625799655914308,0.2725479900836944,1.3650000095367432,-0.4900000095367431,3.184999942779541
17.543736919903804,0.1090679988265037,-0.9611159563064576,0.2727919816970825,1.3300000429153442,-0.1400000005960464,2.799999952316284
17.564042170968506,0.1073599979281425,-0.961847960948944,0.2752319872379303,1.3300000429153442,0.2450000047683715,2.414999961853028
17.584347422033208,0.1071159988641738,-0.9589200019836426,0.2791360020637512,1.4175000190734863,0.5425000190734863,2.257499933242798
17.60465267309791,0.1063839942216873,-0.961359977722168,0.2786479890346527,1.2074999809265137,0.7875000238418579,2.345000028610229
17.62495792416261,0.1073599979281425,-0.9630680084228516,0.2747440040111542,1.399999976158142,0.7699999809265137,2.2925000190734863
17.645263175227313,0.1063839942216873,-0.9652639627456664,0.2698639929294586,1.5399999618530271,0.7350000143051147,2.257499933242798
17.665568426292015,0.1046760007739067,-0.9681919813156128,0.2686440050601959,1.8025000095367432,0.7699999809265137,2.3975000381469727
17.685873677356717,0.1027240008115768,-0.965507984161377,0.2686440050601959,2.380000114440918,0.7524999976158142,2.2925000190734863
17.70617892842142,0.1061399951577186,-0.9584319591522216,0.2725479900836944,2.887500047683716,0.5249999761581421,2.275000095367432
17.72648417948612,0.109555996954441,-0.9601399898529052,0.2725479900836944,2.502500057220459,0.4900000095367431,2.450000047683716
17.746789430550823,0.1088239997625351,-0.9567239880561828,0.2713280022144317,2.5199999809265137,0.3675000071525574,2.6075000762939453
17.767094681615525,0.1115079969167709,-0.9562360048294068,0.2698639929294586,2.3975000381469727,0.1924999952316284,2.887500047683716
17.787399932680227,0.1117519959807396,-0.9537959694862366,0.2703520059585571,2.257499933242798,-0.0350000001490116,2.887500047683716
17.80770518374493,0.1054079979658126,-0.9523319602012634,0.2715719938278198,2.0299999713897705,-0.3675000071525574,2.870000123977661
17.82801043480963,0.1034559980034828,-0.9562360048294068,0.2671799957752228,1.9600000381469729,-0.7699999809265137,3.255000114440918
17.848315685874333,0.1027240008115768,-0.9603840112686156,0.2671799957752228,1.995000004768372,-1.2599999904632568,3.587500095367432
17.868620936939035,0.1032119989395141,-0.9672159552574158,0.2698639929294586,2.345000028610229,-1.5049999952316284,3.990000009536743
17.888926188003737,0.0939399972558021,-0.9689239859580994,0.2640079855918884,3.447499990463257,-1.837499976158142,4.252500057220459
17.90923143906844,0.0983319953083992,-0.965507984161377,0.2666919827461242,4.130000114440918,-2.345000028610229,5.232500076293945
17.92953669013314,0.1005280017852783,-0.9630680084228516,0.2659600079059601,5.179999828338623,-4.130000114440918,6.474999904632568
17.949841941197842,0.0956479981541633,-0.9647759795188904,0.2586399912834167,6.002500057220459,-4.602499961853027,6.912499904632568
17.970147192262544,0.0975999981164932,-0.9650200009346008,0.2618120014667511,6.702499866485596,-4.690000057220459,7.630000114440918
17.990452443327246,0.0990639999508857,-0.9628239870071412,0.2637639939785003,7.402500152587891,-4.637499809265137,8.225000381469727
18.01075769439195,0.1063839942216873,-0.962336003780365,0.2644959986209869,7.804999828338623,-5.039999961853027,8.78499984741211
18.03106294545665,0.0980879962444305,-0.9608719944953918,0.2625440061092376,8.680000305175781,-5.337500095367432,8.907500267028809
18.051368196521352,0.099551998078823,-0.958675980567932,0.268887996673584,9.397500038146973,-5.599999904632568,9.800000190734863
18.071673447586054,0.0936959981918335,-0.9579439759254456,0.2747440040111542,10.010000228881836,-6.422500133514404,10.710000038146973
18.091978698650756,0.0907679945230484,-0.9659959673881532,0.2757200002670288,10.359999656677246,-6.5625,11.567500114440918
18.112283949715458,0.0934519991278648,-0.9684360027313232,0.2705959975719452,11.392499923706056,-6.352499961853027,12.039999961853027
18.13258920078016,0.095160000026226,-0.9720959663391112,0.2679120004177093,12.494999885559082,-6.159999847412109,11.952500343322754
18.152894451844862,0.0985759943723678,-0.9794159531593324,0.2591280043125152,13.369999885559082,-5.897500038146973,10.779999732971191
18.173199702909564,0.0944279953837394,-0.9828319549560548,0.2710839807987213,15.207500457763672,-5.652500152587891,9.012499809265137
18.193504953974266,0.095891997218132,-0.9840520024299622,0.2708399891853332,17.02750015258789,-5.337500095367432,7.945000171661377
18.213810205038968,0.0988200008869171,-0.9852719902992249,0.2620559930801391,18.707500457763672,-4.392499923706055,6.440000057220459
18.23411545610367,0.0985759943723678,-0.9777079820632936,0.2664479911327362,21.665000915527344,-3.0274999141693115,4.707499980926514
18.25442070716837,0.0854000002145767,-0.9559919834136964,0.2864559888839721,26.0575008392334,-1.5049999952316284,4.130000114440918
18.274725958233073,0.0971119999885559,-0.9088999629020692,0.2920680046081543,32.51499938964844,1.5225000381469729,6.387499809265137
18.295031209297775,0.0929640009999275,-0.8239879608154297,0.3001199960708618,37.01250076293945,6.125,11.970000267028809
18.315336460362477,0.0678320005536079,-0.7844600081443787,0.313539981842041,34.877498626708984,6.965000152587891,19.337499618530277
18.33564171142718,0.0487999990582466,-0.7917799949645996,0.310368001461029,31.44750022888184,6.545000076293945,23.15250015258789
18.35594696249188,0.0544119998812675,-0.8298439979553223,0.2803559899330139,28.962499618530277,7.332499980926514,23.170000076293945
18.376252213556583,0.06734399497509,-0.854487955570221,0.2449759989976883,28.542499542236328,9.432499885559082,21.80500030517578
18.396557464621285,0.0944279953837394,-0.8425319790840149,0.2186239957809448,28.052499771118164,12.600000381469728,22.627500534057617
18.416862715685987,0.1107759997248649,-0.7949519753456116,0.2127679884433746,26.670000076293945,15.3125,26.38999938964844
18.43716796675069,0.0890600010752677,-0.7561559677124023,0.1978839933872223,24.989999771118164,15.015000343322754,32.88249969482422
18.45747321781539,0.0631959959864616,-0.7298039793968201,0.1678719967603683,25.74250030517578,14.595000267028809,39.602500915527344
18.477778468880093,0.0517279990017414,-0.685151994228363,0.1383479982614517,27.86000061035156,14.087499618530272,45.20249938964844
