# Time (seconds),Accel_X,Accel_Y,Accel_Z,Gyro_X,Gyro_Y,Gyro_Z
0.0099999,0.6847416758537292,-9.861717224121094,1.113303780555725,2.716064453125,1.983642578125,5.7373046875
0.029999900000000003,0.6607996821403503,-9.864110946655273,1.091755986213684,0.1983642578125,0.9307861328125,2.7923583984375
0.0499999,0.4692635238170624,-9.859322547912598,1.0965443849563599,-2.716064453125,-0.4119873046875,-2.3651123046875
0.0699999,0.2777273952960968,-9.816226959228516,1.170764684677124,0.457763671875,0.9002685546875,-6.04248046875
0.08999990000000001,0.24899697303771973,-9.840168952941895,1.072602391242981,-1.8463134765625,0,-5.18798828125
0.10999990000000001,0.3998316824436188,-9.856928825378418,1.01753568649292,-0.6866455078125,0.396728515625,-0.701904296875
0.1299999,0.6368576288223267,-9.86889934539795,1.0199298858642578,3.6468505859375,1.9073486328125,4.1656494140625
0.14999990000000002,0.7398083209991455,-9.885659217834473,0.9792284965515137,0.3509521484375,1.03759765625,6.317138671875
0.1699999,0.6512228846549988,-9.86889934539795,1.0295066833496094,-1.0986328125,-0.579833984375,2.6092529296875
0.1899999,0.40222588181495667,-9.840168952941895,1.113303780555725,0.42724609375,-0.396728515625,-3.5552978515625
0.20999990000000002,0.22026655077934265,-9.832986831665039,1.113303780555725,-1.2664794921875,-0.1678466796875,-7.1563720703125
0.2299999,0.24181437492370605,-9.840168952941895,1.0821791887283325,-1.220703125,-1.2969970703125,-4.4403076171875
0.2499999,0.4381389021873474,-9.84495735168457,1.094150185585022,2.0904541015625,-2.74658203125,3.0670166015625
0.2699999,0.6368576288223267,-9.871294021606445,1.0295066833496094,0.4425048828125,-0.1068115234375,5.645751953125
0.28999990000000003,0.6703764796257019,-9.854534149169922,1.0773907899856567,0.0152587890625,1.6632080078125,3.0059814453125
0.3099999,0.5315127968788147,-9.847352027893066,1.0869675874710083,-0.9002685546875,0.3814697265625,-1.983642578125
0.3299999,0.35913026332855225,-9.837775230407715,1.1037269830703735,-1.4801025390625,0.0762939453125,-5.4473876953125
0.34999990000000003,0.3423708379268646,-9.84495735168457,1.0606313943862915,-0.2899169921875,0.54931640625,-4.57763671875
0.3699999,0.4620809257030487,-9.864110946655273,1.0199298858642578,1.3427734375,0.732421875,0.9613037109375
0.3899999,0.6129156351089478,-9.86889934539795,1.01753568649292,1.678466796875,1.4495849609375,5.126953125
0.40999990000000003,0.6224924325942993,-9.86650562286377,1.0199298858642578,-0.6103515625,0.8392333984375,3.3111572265625
0.4299999,0.5219359993934631,-9.849745750427246,1.0797849893569946,-0.6256103515625,0.30517578125,-2.166748046875
0.4499999,0.38546648621559143,-9.832986831665039,1.115697979927063,-0.274658203125,0.42724609375,-4.486083984375
0.4699999,0.36152446269989014,-9.84495735168457,1.0773907899856567,-0.9307861328125,0.091552734375,-2.471923828125
0.4899999,0.4620809257030487,-9.852140426635742,1.072602391242981,0.9765625,0.9765625,0.396728515625
0.5099999,0.586579442024231,-9.86889934539795,1.0414776802062988,0.9002685546875,1.2054443359375,2.9449462890625
0.5299999,0.5937620401382446,-9.873687744140625,1.0414776802062988,-0.396728515625,0.823974609375,3.5247802734375
0.5499999,0.4884171485900879,-9.859322547912598,1.0845733880996704,-0.091552734375,0.48828125,-0.5035400390625
0.5699999,0.3471592366695404,-9.852140426635742,1.0989385843276978,-0.8697509765625,0.0152587890625,-5.18798828125
0.5899998999999999,0.3208230137825012,-9.852140426635742,1.072602391242981,-0.9002685546875,-0.152587890625,-4.8675537109375
0.6099998999999999,0.4357447028160095,-9.856928825378418,1.0582371950149536,0.9613037109375,-0.091552734375,0.518798828125
0.6299999,0.6033388376235962,-9.8784761428833,1.0127472877502441,0.7476806640625,0.7781982421875,4.913330078125
0.6499999,0.6488286852836609,-9.871294021606445,1.0199298858642578,0.5340576171875,0.91552734375,3.9825439453125
0.6699999,0.5434837937355042,-9.86650562286377,1.0199298858642578,0.3662109375,-3.35693359375,-0.42724609375
0.6899999,0.395043283700943,-9.856928825378418,1.036689281463623,-0.030517578125,-11.932373046875,-3.3111572265625
0.7099999,0.38546648621559143,-9.861717224121094,1.0103530883789062,1.28173828125,-12.4359130859375,1.4495849609375
0.7299998999999999,0.5219359993934631,-9.864110946655273,1.0271124839782715,1.52587890625,-10.6964111328125,3.265380859375
0.7499998999999999,0.5961562395095825,-9.864110946655273,1.072602391242981,0.8087158203125,-7.2479248046875,3.5400390625
0.7699999,0.5793967843055725,-9.854534149169922,1.1180921792984009,-0.2288818359375,-1.1444091796875,0.6103515625
0.7899999,0.5171475410461426,-9.847352027893066,1.1659762859344482,-0.2288818359375,1.15966796875,-2.1514892578125
0.8099999,0.45250412821769714,-9.84256362915039,1.158793568611145,0.030517578125,0.6256103515625,-1.1138916015625
0.8299999,0.4381389021873474,-9.849745750427246,1.1228805780410767,-0.0457763671875,0.7476806640625,0.579833984375
0.8499998999999999,0.4596867263317108,-9.849745750427246,1.1085153818130493,0.1678466796875,0.9307861328125,0.1678466796875
0.8699998999999999,0.47405192255973816,-9.852140426635742,1.0965443849563599,-0.30517578125,0.5950927734375,-0.6256103515625
0.8899999,0.47405192255973816,-9.852140426635742,1.0989385843276978,-0.3204345703125,0.6103515625,-0.579833984375
0.9099999,0.47644615173339844,-9.849745750427246,1.0989385843276978,0.0762939453125,0.6866455078125,-0.6866455078125
0.9299999,0.48602294921875,-9.859322547912598,1.070208191871643,-0.274658203125,0.640869140625,-0.54931640625
0.9499999,0.49799394607543945,-9.861717224121094,1.05105459690094,-0.06103515625,0.79345703125,-0.06103515625
0.9699998999999999,0.5051765441894531,-9.86650562286377,1.05105459690094,0.396728515625,0.946044921875,0.2288818359375
0.9899998999999999,0.49799394607543945,-9.861717224121094,1.0582371950149536,-0.0762939453125,0.701904296875,-0.1373291015625
1.0099999,0.4884171485900879,-9.856928825378418,1.0845733880996704,-0.2593994140625,0.54931640625,-1.007080078125
1.0299999,0.4836287498474121,-9.854534149169922,1.094150185585022,-0.274658203125,0.6256103515625,-0.9002685546875
1.0499999,0.4884171485900879,-9.854534149169922,1.0749965906143188,-0.3662109375,0.6561279296875,-0.030517578125
1.0699999,0.49799394607543945,-9.856928825378418,1.0606313943862915,0.2593994140625,0.8087158203125,-0.0152587890625
1.0899999,0.5027823448181152,-9.859322547912598,1.048660397529602,0.2899169921875,0.79345703125,-0.3662109375
1.1099999,0.4908113479614258,-9.859322547912598,1.0582371950149536,-0.1220703125,0.7476806640625,-0.1373291015625
1.1299999,0.47884035110473633,-9.854534149169922,1.0821791887283325,-0.244140625,0.640869140625,-0.3662109375
1.1499999,0.47644615173339844,-9.854534149169922,1.0965443849563599,-0.5035400390625,0.4119873046875,-1.2054443359375
1.1699998999999999,0.49320554733276367,-9.856928825378418,1.091755986213684,-0.213623046875,0.579833984375,-0.91552734375
1.1899998999999999,0.5123591423034668,-9.861717224121094,1.070208191871643,0.2899169921875,0.9002685546875,0.6256103515625
1.2099999,0.507570743560791,-9.864110946655273,1.05105459690094,0.244140625,0.8697509765625,0.8544921875
1.2299999,0.4908113479614258,-9.861717224121094,1.0606313943862915,-0.0762939453125,0.701904296875,-0.6561279296875
1.2499999,0.4644751250743866,-9.854534149169922,1.0797849893569946,-0.2899169921875,0.6103515625,-1.46484375
1.2699999,0.4620809257030487,-9.852140426635742,1.094150185585022,-0.335693359375,0.5645751953125,-0.8087158203125
1.2899999,0.49320554733276367,-9.852140426635742,1.094150185585022,-0.152587890625,0.6561279296875,-0.2288818359375
1.3099999,0.5291185975074768,-9.859322547912598,1.0678139925003052,0.091552734375,0.762939453125,0.213623046875
1.3299999,0.5315127968788147,-9.859322547912598,1.05105459690094,0.213623046875,0.8544921875,0.7476806640625
1.3499999,0.5003881454467773,-9.856928825378418,1.048660397529602,0.06103515625,0.762939453125,0.152587890625
1.3699999,0.4668693244457245,-9.852140426635742,1.0654197931289673,-0.2593994140625,0.5035400390625,-1.7242431640625
1.3899999,0.4572925269603729,-9.847352027893066,1.0869675874710083,-0.30517578125,0.4730224609375,-1.77001953125
1.4099999,0.48602294921875,-9.852140426635742,1.0893617868423462,-0.1068115234375,0.6866455078125,0.0152587890625
1.4299998999999999,0.524330198764801,-9.854534149169922,1.0821791887283325,0.335693359375,0.885009765625,1.15966796875
1.4499999,0.5267243981361389,-9.861717224121094,1.0678139925003052,0.1678466796875,0.79345703125,0.579833984375
1.4699999,0.49799394607543945,-9.861717224121094,1.0678139925003052,-0.06103515625,0.67138671875,-0.732421875
1.4899999,0.45489832758903503,-9.852140426635742,1.0797849893569946,-0.1068115234375,0.7476806640625,-1.1444091796875
1.5099999,0.44532153010368347,-9.852140426635742,1.0893617868423462,-0.6103515625,0.48828125,-1.220703125
1.5299999,0.4812345504760742,-9.852140426635742,1.0965443849563599,-0.2288818359375,0.5645751953125,-0.9613037109375
1.5499999,0.5267243981361389,-9.856928825378418,1.0845733880996704,0.18310546875,0.8392333984375,0.579833984375
1.5699999,0.5363011956214905,-9.861717224121094,1.0630255937576294,0.1068115234375,0.9002685546875,1.434326171875
1.5899999,0.5123591423034668,-9.859322547912598,1.0654197931289673,0.1068115234375,0.823974609375,-0.335693359375
1.6099999,0.47165772318840027,-9.856928825378418,1.072602391242981,-0.2593994140625,0.579833984375,-1.953125
1.6299999,0.44771572947502136,-9.852140426635742,1.0821791887283325,-0.48828125,0.4730224609375,-1.007080078125
1.6499999,0.4692635238170624,-9.852140426635742,1.094150185585022,0.030517578125,0.732421875,-0.06103515625
1.6699999,0.507570743560791,-9.856928825378418,1.0845733880996704,0.1068115234375,0.7781982421875,0.1678466796875
1.6899998999999999,0.524330198764801,-9.861717224121094,1.0678139925003052,-0.0152587890625,0.823974609375,0.3204345703125
1.7099999,0.5027823448181152,-9.859322547912598,1.0678139925003052,0.2288818359375,0.9002685546875,0.091552734375
1.7299999,0.47405192255973816,-9.859322547912598,1.0678139925003052,-0.213623046875,0.6103515625,-0.9613037109375
1.7499999,0.45489832758903503,-9.854534149169922,1.0845733880996704,-0.42724609375,0.48828125,-1.6021728515625
1.7699999,0.47405192255973816,-9.854534149169922,1.091755986213684,-0.18310546875,0.640869140625,-0.8544921875
1.7899999,0.5123591423034668,-9.859322547912598,1.0869675874710083,-0.06103515625,0.7171630859375,0.457763671875
1.8099999,0.5339069962501526,-9.859322547912598,1.0821791887283325,0.30517578125,0.8544921875,0.7781982421875
1.8299999,0.5195417404174805,-9.859322547912598,1.070208191871643,0.091552734375,0.732421875,-0.030517578125
1.8499999,0.48602294921875,-9.856928825378418,1.072602391242981,-0.2288818359375,0.579833984375,-0.946044921875
1.8699999,0.4572925269603729,-9.849745750427246,1.0869675874710083,-0.091552734375,0.67138671875,-1.0986328125
1.8899999,0.4620809257030487,-9.852140426635742,1.0869675874710083,-0.274658203125,0.5340576171875,-0.8087158203125
1.9099999,0.49559974670410156,-9.852140426635742,1.0893617868423462,-0.1068115234375,0.6561279296875,-0.396728515625
1.9299998999999999,0.5267243981361389,-9.856928825378418,1.0797849893569946,0.1373291015625,0.823974609375,0.4119873046875
1.9499999,0.524330198764801,-9.861717224121094,1.0630255937576294,0.0457763671875,0.732421875,0.5340576171875
1.9699999,0.5003881454467773,-9.859322547912598,1.0654197931289673,0.0457763671875,0.640869140625,-0.579833984375
1.9899999,0.47165772318840027,-9.859322547912598,1.0678139925003052,-0.2288818359375,0.5645751953125,-1.40380859375
2.0099999,0.4668693244457245,-9.854534149169922,1.072602391242981,-0.3509521484375,0.640869140625,-0.885009765625
2.0299999,0.49559974670410156,-9.856928825378418,1.0773907899856567,0.0152587890625,0.79345703125,-0.06103515625
2.0499999,0.524330198764801,-9.854534149169922,1.072602391242981,0.152587890625,0.732421875,0.5035400390625
2.0699999,0.524330198764801,-9.856928825378418,1.070208191871643,0.091552734375,0.6866455078125,0.5035400390625
2.0899999,0.49320554733276367,-9.852140426635742,1.0773907899856567,0.0152587890625,0.8087158203125,-0.213623046875
2.1099999,0.4572925269603729,-9.849745750427246,1.0797849893569946,-0.3509521484375,0.54931640625,-1.1749267578125
2.1299999,0.44771572947502136,-9.849745750427246,1.091755986213684,-0.30517578125,0.5645751953125,-1.4190673828125
2.1499999,0.47405192255973816,-9.849745750427246,1.091755986213684,-0.0762939453125,0.6866455078125,-0.42724609375
2.1699999,0.5147533416748047,-9.856928825378418,1.0821791887283325,-0.1220703125,0.701904296875,0.67138671875
2.1899999,0.5363011956214905,-9.854534149169922,1.0773907899856567,0.152587890625,0.7476806640625,0.5340576171875
2.2099999,0.5195417404174805,-9.854534149169922,1.0630255937576294,0.0152587890625,0.701904296875,-0.2899169921875
2.2299999,0.48602294921875,-9.856928825378418,1.0582371950149536,-0.244140625,0.6103515625,-0.9002685546875
2.2499999,0.4620809257030487,-9.849745750427246,1.0773907899856567,0.2288818359375,0.7781982421875,-0.885009765625
2.2699999,0.4644751250743866,-9.854534149169922,1.0845733880996704,-0.3662109375,0.518798828125,-0.640869140625
2.2899999,0.49799394607543945,-9.854534149169922,1.1013327836990356,-0.518798828125,0.396728515625,-0.6103515625
2.3099999,0.5315127968788147,-9.854534149169922,1.1013327836990356,0.1220703125,0.7171630859375,0.030517578125
2.3299999,0.5267243981361389,-9.859322547912598,1.072602391242981,-0.0152587890625,0.8087158203125,0.7171630859375
2.3499999,0.5051765441894531,-9.859322547912598,1.0558429956436157,0.152587890625,0.732421875,-0.213623046875
2.3699999,0.47165772318840027,-9.859322547912598,1.0558429956436157,0.030517578125,0.6103515625,-1.4801025390625
2.3899999,0.4596867263317108,-9.856928825378418,1.0630255937576294,-0.48828125,0.6103515625,-0.9765625
2.4099999,0.47644615173339844,-9.854534149169922,1.094150185585022,-0.0457763671875,0.7171630859375,-0.091552734375
2.4299999,0.5099649429321289,-9.854534149169922,1.1013327836990356,-0.030517578125,0.67138671875,0.0152587890625
2.4499999,0.5267243981361389,-9.859322547912598,1.091755986213684,-0.213623046875,0.54931640625,0.091552734375
2.4699999,0.5099649429321289,-9.854534149169922,1.0821791887283325,0.3509521484375,0.8392333984375,0.213623046875
2.4899999,0.4812345504760742,-9.859322547912598,1.0654197931289673,-0.030517578125,0.6866455078125,-0.4730224609375
2.5099999,0.4644751250743866,-9.854534149169922,1.0773907899856567,-0.244140625,0.6256103515625,-1.5106201171875
2.5299999,0.47644615173339844,-9.852140426635742,1.091755986213684,-0.1373291015625,0.7476806640625,-1.007080078125
2.5499999,0.5099649429321289,-9.856928825378418,1.094150185585022,-0.335693359375,0.7171630859375,0.396728515625
2.5699999,0.5339069962501526,-9.854534149169922,1.091755986213684,0.1373291015625,0.79345703125,0.7476806640625
2.5899999,0.5219359993934631,-9.859322547912598,1.072602391242981,0.06103515625,0.732421875,0.0762939453125
2.6099999,0.4836287498474121,-9.856928825378418,1.0582371950149536,-0.2288818359375,0.640869140625,-0.6256103515625
2.6299999,0.45010992884635925,-9.852140426635742,1.070208191871643,-0.0762939453125,0.6866455078125,-1.220703125
2.6499999,0.45489832758903503,-9.852140426635742,1.0821791887283325,-0.335693359375,0.518798828125,-1.3275146484375
2.6699999,0.49559974670410156,-9.852140426635742,1.091755986213684,-0.2899169921875,0.579833984375,-0.457763671875
2.6899999,0.5363011956214905,-9.854534149169922,1.091755986213684,0.2593994140625,0.8697509765625,0.762939453125
2.7099999,0.5315127968788147,-9.859322547912598,1.072602391242981,0.2288818359375,0.8544921875,0.946044921875
2.7299999,0.5027823448181152,-9.859322547912598,1.0630255937576294,-0.1373291015625,0.701904296875,-0.6866455078125
2.7499999,0.4644751250743866,-9.856928825378418,1.0749965906143188,-0.091552734375,0.5950927734375,-1.861572265625
2.7699999,0.4572925269603729,-9.856928825378418,1.0845733880996704,-0.2593994140625,0.579833984375,-0.9613037109375
2.7899999,0.49320554733276367,-9.856928825378418,1.0965443849563599,-0.1373291015625,0.6103515625,0.1068115234375
2.8099999,0.5339069962501526,-9.859322547912598,1.094150185585022,0.152587890625,0.762939453125,0.518798828125
2.8299999,0.5339069962501526,-9.864110946655273,1.070208191871643,0.0152587890625,0.762939453125,0.67138671875
2.8499999,0.49799394607543945,-9.861717224121094,1.0606313943862915,0.1068115234375,0.7476806640625,-0.1678466796875
2.8699999,0.4572925269603729,-9.856928825378418,1.0654197931289673,-0.0762939453125,0.5340576171875,-1.495361328125
2.8899999,0.44532153010368347,-9.854534149169922,1.0749965906143188,-0.396728515625,0.5035400390625,-1.5106201171875
2.9099999,0.4812345504760742,-9.852140426635742,1.091755986213684,-0.091552734375,0.6256103515625,-0.30517578125
2.9299999,0.5315127968788147,-9.854534149169922,1.0893617868423462,0.06103515625,0.7781982421875,0.8392333984375
2.9499999,0.5434837937355042,-9.856928825378418,1.0821791887283325,0.0762939453125,0.79345703125,0.91552734375
2.9699999,0.5123591423034668,-9.854534149169922,1.072602391242981,0.1373291015625,0.823974609375,-0.1678466796875
2.9899999,0.4668693244457245,-9.856928825378418,1.0678139925003052,-0.2288818359375,0.5645751953125,-1.4495849609375
3.0099999,0.4429273009300232,-9.854534149169922,1.0773907899856567,-0.2288818359375,0.54931640625,-1.4495849609375
3.0299999,0.4692635238170624,-9.856928825378418,1.0869675874710083,-0.213623046875,0.67138671875,-0.579833984375
3.0499999,0.5219359993934631,-9.859322547912598,1.0893617868423462,0.0152587890625,0.701904296875,0.3662109375
3.0699999,0.5506663918495178,-9.861717224121094,1.0845733880996704,0.18310546875,0.8392333984375,0.8087158203125
3.0899999,0.5267243981361389,-9.859322547912598,1.0749965906143188,0.06103515625,0.762939453125,0.3814697265625
3.1099999,0.4812345504760742,-9.856928825378418,1.072602391242981,-0.1373291015625,0.6103515625,-1.03759765625
3.1299999,0.44532153010368347,-9.854534149169922,1.0821791887283325,-0.244140625,0.5645751953125,-1.678466796875
3.1499999,0.45250412821769714,-9.852140426635742,1.0893617868423462,-0.2593994140625,0.5340576171875,-0.823974609375
3.1699999,0.49559974670410156,-9.852140426635742,1.0989385843276978,-0.0457763671875,0.7781982421875,0.2593994140625
3.1899999,0.5363011956214905,-9.856928825378418,1.0965443849563599,0.0152587890625,0.7781982421875,0.6866455078125
3.2099999,0.5363011956214905,-9.856928825378418,1.0893617868423462,-0.0152587890625,0.823974609375,0.3662109375
3.2299999,0.49320554733276367,-9.856928825378418,1.0821791887283325,0.0457763671875,0.7781982421875,-0.2899169921875
3.2499999,0.45010992884635925,-9.854534149169922,1.0749965906143188,-0.244140625,0.579833984375,-1.4190673828125
3.2699999,0.4405331015586853,-9.852140426635742,1.0797849893569946,-0.2899169921875,0.48828125,-1.9073486328125
3.2899999,0.4812345504760742,-9.856928825378418,1.0869675874710083,-0.06103515625,0.67138671875,-0.54931640625
3.3099999,0.5315127968788147,-9.859322547912598,1.0893617868423462,-0.0152587890625,0.885009765625,1.190185546875
3.3299999000000002,0.5434837937355042,-9.859322547912598,1.0893617868423462,0.1068115234375,0.8087158203125,1.129150390625
3.3499999,0.5123591423034668,-9.859322547912598,1.0797849893569946,-0.1373291015625,0.579833984375,-0.6103515625
3.3699999,0.4620809257030487,-9.854534149169922,1.072602391242981,-0.244140625,0.5645751953125,-1.52587890625
3.3899999,0.4429273009300232,-9.854534149169922,1.070208191871643,-0.1068115234375,0.6561279296875,-1.1138916015625
3.4099999,0.47644615173339844,-9.854534149169922,1.0773907899856567,-0.1068115234375,0.67138671875,-0.579833984375
3.4299999,0.524330198764801,-9.859322547912598,1.0869675874710083,0.1220703125,0.7476806640625,0.4425048828125
3.4499999,0.5386953949928284,-9.859322547912598,1.0893617868423462,0.1373291015625,0.823974609375,1.1749267578125
3.4699999,0.5099649429321289,-9.859322547912598,1.0845733880996704,-0.06103515625,0.701904296875,0.06103515625
3.4899999,0.4692635238170624,-9.854534149169922,1.0821791887283325,-0.06103515625,0.5950927734375,-1.6021728515625
3.5099999,0.4405331015586853,-9.854534149169922,1.0773907899856567,-0.2899169921875,0.5645751953125,-1.4495849609375
3.5299999,0.4644751250743866,-9.856928825378418,1.0821791887283325,-0.1678466796875,0.67138671875,-0.3509521484375
3.5499999,0.5147533416748047,-9.859322547912598,1.091755986213684,0.18310546875,0.823974609375,0.5645751953125
3.5699999,0.5363011956214905,-9.864110946655273,1.091755986213684,-0.0762939453125,0.8087158203125,0.8697509765625
3.5899999,0.5171475410461426,-9.864110946655273,1.091755986213684,-0.0457763671875,0.7476806640625,0.1220703125
3.6099999,0.47884035110473633,-9.861717224121094,1.0869675874710083,-0.0762939453125,0.6561279296875,-1.2054443359375
3.6299999,0.45250412821769714,-9.859322547912598,1.0773907899856567,-0.30517578125,0.42724609375,-1.373291015625
3.6499999,0.4668693244457245,-9.856928825378418,1.0797849893569946,-0.1220703125,0.6103515625,-0.7476806640625
3.6699999,0.5099649429321289,-9.859322547912598,1.0869675874710083,0.06103515625,0.8087158203125,0.3204345703125
3.6899999,0.5386953949928284,-9.859322547912598,1.0893617868423462,0.0152587890625,0.7781982421875,0.885009765625
3.7099999,0.5315127968788147,-9.856928825378418,1.0893617868423462,-0.0762939453125,0.6866455078125,0.0762939453125
3.7299999,0.5003881454467773,-9.856928825378418,1.0845733880996704,-0.18310546875,0.5950927734375,-0.9918212890625
3.7499999,0.4692635238170624,-9.854534149169922,1.0773907899856567,-0.1220703125,0.6256103515625,-0.9918212890625
3.7699999,0.4692635238170624,-9.854534149169922,1.0773907899856567,-0.0762939453125,0.732421875,-0.48828125
3.7899999,0.4908113479614258,-9.854534149169922,1.0845733880996704,-0.1220703125,0.7171630859375,-0.152587890625
3.8099999,0.5171475410461426,-9.854534149169922,1.091755986213684,-0.1678466796875,0.640869140625,0.030517578125
3.8299999000000002,0.5219359993934631,-9.856928825378418,1.094150185585022,0.030517578125,0.732421875,0.244140625
3.8499999,0.5003881454467773,-9.856928825378418,1.0893617868423462,-0.0457763671875,0.732421875,-0.1373291015625
3.8699999,0.4812345504760742,-9.859322547912598,1.0797849893569946,-0.213623046875,0.579833984375,-1.03759765625
3.8899999,0.47405192255973816,-9.856928825378418,1.0797849893569946,-0.091552734375,0.6103515625,-1.0528564453125
3.9099999,0.4908113479614258,-9.856928825378418,1.0797849893569946,-0.06103515625,0.701904296875,-0.0762939453125
3.9299999,0.5123591423034668,-9.854534149169922,1.0869675874710083,-0.1068115234375,0.732421875,0.2288818359375
3.9499999,0.5267243981361389,-9.854534149169922,1.0869675874710083,-0.0152587890625,0.6256103515625,-0.1373291015625
3.9699999,0.5147533416748047,-9.854534149169922,1.0797849893569946,0,0.6866455078125,-0.152587890625
3.9899999,0.48602294921875,-9.854534149169922,1.0749965906143188,0.06103515625,0.7781982421875,-0.0762939453125
4.0099999,0.4644751250743866,-9.852140426635742,1.0749965906143188,-0.213623046875,0.67138671875,-0.9002685546875
4.029999900000001,0.4692635238170624,-9.854534149169922,1.0845733880996704,-0.3814697265625,0.457763671875,-1.46484375
4.0499999,0.49799394607543945,-9.852140426635742,1.094150185585022,-0.1220703125,0.6256103515625,-0.274658203125
4.069999900000001,0.5267243981361389,-9.854534149169922,1.094150185585022,0.0762939453125,0.8697509765625,0.9613037109375
4.0899999000000005,0.5267243981361389,-9.854534149169922,1.0893617868423462,0.091552734375,0.762939453125,0.4730224609375
4.1099999,0.5003881454467773,-9.852140426635742,1.0797849893569946,0,0.6256103515625,-0.7476806640625
4.1299999000000005,0.4644751250743866,-9.849745750427246,1.0773907899856567,-0.213623046875,0.579833984375,-1.068115234375
4.1499999,0.4572925269603729,-9.849745750427246,1.0845733880996704,-0.2899169921875,0.67138671875,-0.8697509765625
4.1699999000000005,0.48602294921875,-9.852140426635742,1.091755986213684,-0.1220703125,0.67138671875,-0.6561279296875
4.1899999,0.524330198764801,-9.854534149169922,1.0893617868423462,-0.0152587890625,0.7476806640625,0.18310546875
4.209999900000001,0.5363011956214905,-9.856928825378418,1.0821791887283325,0.1983642578125,0.823974609375,1.0528564453125
4.2299999,0.507570743560791,-9.856928825378418,1.070208191871643,0.06103515625,0.732421875,0.152587890625
4.249999900000001,0.47165772318840027,-9.854534149169922,1.0678139925003052,-0.152587890625,0.640869140625,-1.5411376953125
4.2699999,0.44771572947502136,-9.852140426635742,1.072602391242981,-0.0457763671875,0.6103515625,-1.2664794921875
4.289999900000001,0.4644751250743866,-9.852140426635742,1.0797849893569946,-0.2593994140625,0.732421875,-0.091552734375
4.3099999,0.5003881454467773,-9.854534149169922,1.0869675874710083,0,0.79345703125,0.4119873046875
4.329999900000001,0.5267243981361389,-9.854534149169922,1.0893617868423462,0.030517578125,0.701904296875,0.2593994140625
4.3499999,0.5147533416748047,-9.856928825378418,1.0845733880996704,-0.06103515625,0.701904296875,0.1220703125
4.369999900000001,0.4668693244457245,-9.852140426635742,1.0869675874710083,-0.1983642578125,0.518798828125,-1.4190673828125
4.3899999,0.47405192255973816,-9.854534149169922,1.0893617868423462,-0.2899169921875,0.579833984375,-0.9002685546875
4.409999900000001,0.5051765441894531,-9.856928825378418,1.091755986213684,0.0762939453125,0.7476806640625,0.3662109375
4.4299999,0.5219359993934631,-9.861717224121094,1.0869675874710083,0.091552734375,0.7171630859375,0.6561279296875
4.449999900000001,0.5195417404174805,-9.861717224121094,1.0821791887283325,-0.06103515625,0.6561279296875,-0.1678466796875
4.4699999,0.49559974670410156,-9.856928825378418,1.0797849893569946,-0.030517578125,0.6561279296875,-0.91552734375
4.489999900000001,0.47165772318840027,-9.854534149169922,1.0749965906143188,-0.0762939453125,0.6256103515625,-0.5950927734375
4.5099999,0.4692635238170624,-9.852140426635742,1.0821791887283325,-0.18310546875,0.6256103515625,-0.54931640625
4.529999900000001,0.4908113479614258,-9.852140426635742,1.0893617868423462,-0.0457763671875,0.67138671875,-0.6103515625
4.5499999,0.5099649429321289,-9.856928825378418,1.0893617868423462,-0.1678466796875,0.762939453125,0.2593994140625
4.569999900000001,0.5099649429321289,-9.856928825378418,1.0869675874710083,-0.030517578125,0.762939453125,0.457763671875
4.5899999000000005,0.49799394607543945,-9.859322547912598,1.0845733880996704,0,0.67138671875,-0.640869140625
4.609999900000001,0.47884035110473633,-9.859322547912598,1.0821791887283325,-0.18310546875,0.5340576171875,-1.03759765625
4.6299999000000005,0.47165772318840027,-9.856928825378418,1.0845733880996704,-0.091552734375,0.6561279296875,-0.5035400390625
4.6499999,0.4884171485900879,-9.856928825378418,1.0893617868423462,-0.030517578125,0.762939453125,-0.152587890625
4.6699999000000005,0.507570743560791,-9.856928825378418,1.0869675874710083,-0.1068115234375,0.6866455078125,-0.213623046875
4.6899999,0.5171475410461426,-9.856928825378418,1.0845733880996704,-0.030517578125,0.732421875,-0.0457763671875
4.709999900000001,0.5051765441894531,-9.856928825378418,1.0797849893569946,0.0762939453125,0.823974609375,0.1220703125
4.7299999,0.4836287498474121,-9.854534149169922,1.0797849893569946,-0.1068115234375,0.762939453125,-0.4425048828125
4.749999900000001,0.4692635238170624,-9.852140426635742,1.0821791887283325,-0.2288818359375,0.6103515625,-1.0528564453125
4.7699999,0.47405192255973816,-9.852140426635742,1.0845733880996704,-0.2593994140625,0.5340576171875,-0.91552734375
4.789999900000001,0.49559974670410156,-9.854534149169922,1.0845733880996704,-0.0457763671875,0.732421875,-0.030517578125
4.8099999,0.5123591423034668,-9.854534149169922,1.0821791887283325,0.1373291015625,0.8392333984375,0.4730224609375
4.829999900000001,0.5099649429321289,-9.854534149169922,1.0797849893569946,-0.091552734375,0.67138671875,-0.0762939453125
4.8499999,0.49320554733276367,-9.854534149169922,1.0869675874710083,-0.1220703125,0.6561279296875,-0.6866455078125
4.869999900000001,0.47165772318840027,-9.854534149169922,1.091755986213684,-0.1678466796875,0.6866455078125,-0.6866455078125
4.8899999,0.47165772318840027,-9.854534149169922,1.094150185585022,-0.2593994140625,0.6256103515625,-0.54931640625
4.909999900000001,0.49320554733276367,-9.856928825378418,1.094150185585022,-0.091552734375,0.5950927734375,-0.54931640625
4.9299999,0.5123591423034668,-9.861717224121094,1.0869675874710083,0.06103515625,0.7476806640625,0.213623046875
4.949999900000001,0.5123591423034668,-9.859322547912598,1.0869675874710083,0.152587890625,0.8544921875,0.67138671875
4.9699999,0.49320554733276367,-9.859322547912598,1.091755986213684,0,0.7476806640625,-0.335693359375
4.989999900000001,0.47405192255973816,-9.854534149169922,1.0989385843276978,-0.3814697265625,0.5340576171875,-1.373291015625
5.0099999,0.4692635238170624,-9.854534149169922,1.1013327836990356,-0.244140625,0.579833984375,-0.9307861328125
5.029999900000001,0.4908113479614258,-9.854534149169922,1.0989385843276978,0.030517578125,0.79345703125,0.0457763671875
5.0499999,0.5147533416748047,-9.856928825378418,1.091755986213684,0.1068115234375,0.7476806640625,0.3204345703125
5.069999900000001,0.5171475410461426,-9.859322547912598,1.0869675874710083,0.0762939453125,0.732421875,0.091552734375
5.0899999000000005,0.49799394607543945,-9.856928825378418,1.0893617868423462,-0.1220703125,0.67138671875,-0.4425048828125
5.109999900000001,0.47884035110473633,-9.856928825378418,1.091755986213684,-0.18310546875,0.6561279296875,-0.91552734375
5.1299999000000005,0.47405192255973816,-9.854534149169922,1.0965443849563599,-0.1220703125,0.640869140625,-0.885009765625
5.1499999,0.4884171485900879,-9.854534149169922,1.0893617868423462,-0.1220703125,0.6561279296875,-0.335693359375
5.1699999000000005,0.5099649429321289,-9.854534149169922,1.0845733880996704,0.0762939453125,0.79345703125,0.213623046875
5.1899999,0.5123591423034668,-9.854534149169922,1.0773907899856567,0.1220703125,0.8087158203125,0.244140625
5.209999900000001,0.49799394607543945,-9.854534149169922,1.0749965906143188,-0.1068115234375,0.6256103515625,-0.4119873046875
5.2299999,0.47884035110473633,-9.852140426635742,1.0821791887283325,-0.213623046875,0.6256103515625,-0.9613037109375
5.249999900000001,0.47165772318840027,-9.854534149169922,1.0869675874710083,-0.244140625,0.6256103515625,-0.8087158203125
5.2699999,0.4836287498474121,-9.854534149169922,1.0869675874710083,-0.091552734375,0.701904296875,-0.2288818359375
5.289999900000001,0.5027823448181152,-9.856928825378418,1.0845733880996704,0.1373291015625,0.732421875,0.1678466796875
5.3099999,0.5099649429321289,-9.859322547912598,1.0749965906143188,0,0.6866455078125,0.0457763671875
5.329999900000001,0.5027823448181152,-9.856928825378418,1.0773907899856567,0.06103515625,0.762939453125,-0.274658203125
5.3499999,0.4884171485900879,-9.854534149169922,1.0821791887283325,-0.0457763671875,0.640869140625,-0.579833984375
5.369999900000001,0.47884035110473633,-9.852140426635742,1.0869675874710083,-0.244140625,0.54931640625,-0.7171630859375
5.3899999,0.4884171485900879,-9.852140426635742,1.094150185585022,-0.0762939453125,0.6561279296875,-0.6256103515625
5.409999900000001,0.5003881454467773,-9.854534149169922,1.0893617868423462,0,0.732421875,-0.091552734375
5.4299999,0.5123591423034668,-9.856928825378418,1.0797849893569946,0.030517578125,0.701904296875,0.18310546875
5.449999900000001,0.5123591423034668,-9.856928825378418,1.0821791887283325,0.152587890625,0.701904296875,-0.152587890625
5.4699999,0.5003881454467773,-9.854534149169922,1.0821791887283325,-0.06103515625,0.640869140625,-0.4425048828125
5.489999900000001,0.4836287498474121,-9.852140426635742,1.0893617868423462,-0.1678466796875,0.6103515625,-0.5035400390625
5.5099999,0.4812345504760742,-9.849745750427246,1.0965443849563599,-0.0457763671875,0.6561279296875,-0.518798828125
5.529999900000001,0.4884171485900879,-9.852140426635742,1.091755986213684,-0.152587890625,0.6256103515625,-0.48828125
5.5499999,0.5027823448181152,-9.852140426635742,1.0869675874710083,0.030517578125,0.701904296875,-0.1220703125
5.569999900000001,0.507570743560791,-9.854534149169922,1.0845733880996704,0.1678466796875,0.762939453125,0.1373291015625
5.5899999000000005,0.5027823448181152,-9.854534149169922,1.0845733880996704,-0.1220703125,0.701904296875,-0.091552734375
5.609999900000001,0.4884171485900879,-9.854534149169922,1.0893617868423462,-0.1983642578125,0.640869140625,-0.7171630859375
5.6299999000000005,0.4812345504760742,-9.854534149169922,1.091755986213684,-0.213623046875,0.6256103515625,-0.9613037109375
5.6499999,0.48602294921875,-9.854534149169922,1.0869675874710083,-0.152587890625,0.6866455078125,-0.4119873046875
5.6699999000000005,0.5027823448181152,-9.856928825378418,1.0845733880996704,0.0762939453125,0.7781982421875,0.1373291015625
5.6899999,0.507570743560791,-9.856928825378418,1.0797849893569946,0.0762939453125,0.79345703125,0.1678466796875
5.709999900000001,0.49799394607543945,-9.856928825378418,1.0845733880996704,-0.0762939453125,0.6561279296875,-0.1678466796875
5.7299999,0.4812345504760742,-9.854534149169922,1.094150185585022,-0.1373291015625,0.6256103515625,-0.5340576171875
5.749999900000001,0.4692635238170624,-9.852140426635742,1.0965443849563599,-0.2899169921875,0.579833984375,-0.8087158203125
5.7699999,0.47405192255973816,-9.854534149169922,1.094150185585022,-0.1068115234375,0.6103515625,-0.701904296875
5.789999900000001,0.49320554733276367,-9.854534149169922,1.0869675874710083,0.1373291015625,0.7476806640625,-0.0762939453125
5.8099999,0.507570743560791,-9.856928825378418,1.0773907899856567,-0.0457763671875,0.7171630859375,0.3509521484375
5.829999900000001,0.5027823448181152,-9.854534149169922,1.0821791887283325,0.0152587890625,0.67138671875,-0.091552734375
5.8499999,0.4884171485900879,-9.852140426635742,1.0845733880996704,-0.091552734375,0.5950927734375,-0.6866455078125
5.869999900000001,0.4692635238170624,-9.852140426635742,1.0869675874710083,-0.1983642578125,0.6256103515625,-0.732421875
5.8899999,0.47165772318840027,-9.854534149169922,1.0869675874710083,-0.1220703125,0.6561279296875,-0.701904296875
5.909999900000001,0.4884171485900879,-9.859322547912598,1.0821791887283325,-0.030517578125,0.67138671875,-0.3814697265625
5.9299999,0.5051765441894531,-9.864110946655273,1.0797849893569946,0.0457763671875,0.732421875,0.2288818359375
5.949999900000001,0.5051765441894531,-9.861717224121094,1.0845733880996704,0.0762939453125,0.7476806640625,0.1983642578125
5.9699999,0.49799394607543945,-9.861717224121094,1.0893617868423462,-0.2593994140625,0.640869140625,-0.7171630859375
5.989999900000001,0.48602294921875,-9.856928825378418,1.0989385843276978,-0.1983642578125,0.5950927734375,-1.0223388671875
6.0099999,0.4836287498474121,-9.856928825378418,1.0989385843276978,-0.0762939453125,0.67138671875,-0.30517578125
6.029999900000001,0.4884171485900879,-9.859322547912598,1.091755986213684,-0.0457763671875,0.7476806640625,0.1068115234375
6.0499999,0.49799394607543945,-9.861717224121094,1.0869675874710083,-0.0457763671875,0.762939453125,-0.30517578125
6.069999900000001,0.49559974670410156,-9.861717224121094,1.0845733880996704,-0.030517578125,0.701904296875,-0.3814697265625
6.0899999000000005,0.4884171485900879,-9.859322547912598,1.0893617868423462,0,0.701904296875,-0.0762939453125
6.109999900000001,0.4812345504760742,-9.854534149169922,1.0965443849563599,-0.152587890625,0.701904296875,-0.396728515625
6.1299999000000005,0.4812345504760742,-9.854534149169922,1.0965443849563599,-0.2288818359375,0.5950927734375,-0.8087158203125
6.149999900000001,0.48602294921875,-9.852140426635742,1.094150185585022,-0.0762939453125,0.6256103515625,-0.457763671875
6.1699999000000005,0.49559974670410156,-9.854534149169922,1.0869675874710083,-0.0457763671875,0.7171630859375,-0.0152587890625
6.1899999,0.5051765441894531,-9.856928825378418,1.0845733880996704,0.030517578125,0.762939453125,-0.06103515625
6.209999900000001,0.5003881454467773,-9.856928825378418,1.0869675874710083,0.0152587890625,0.701904296875,-0.2288818359375
6.2299999,0.4884171485900879,-9.856928825378418,1.091755986213684,-0.1220703125,0.701904296875,-0.274658203125
6.249999900000001,0.47644615173339844,-9.854534149169922,1.0965443849563599,-0.18310546875,0.67138671875,-0.6256103515625
6.2699999,0.47884035110473633,-9.856928825378418,1.1013327836990356,-0.091552734375,0.6256103515625,-0.7476806640625
6.289999900000001,0.4836287498474121,-9.856928825378418,1.0965443849563599,-0.0457763671875,0.6866455078125,-0.1983642578125
6.3099999,0.49559974670410156,-9.859322547912598,1.091755986213684,0,0.8087158203125,0.1983642578125
6.329999900000001,0.49559974670410156,-9.859322547912598,1.0893617868423462,0.0457763671875,0.7171630859375,-0.213623046875
6.3499999,0.4908113479614258,-9.856928825378418,1.0893617868423462,-0.1678466796875,0.6561279296875,-0.579833984375
6.369999900000001,0.4812345504760742,-9.856928825378418,1.094150185585022,-0.1373291015625,0.579833984375,-0.4730224609375
6.3899999,0.47884035110473633,-9.854534149169922,1.094150185585022,-0.0457763671875,0.6866455078125,-0.42724609375
6.409999900000001,0.48602294921875,-9.856928825378418,1.091755986213684,-0.091552734375,0.5950927734375,-0.4425048828125
6.4299999,0.49559974670410156,-9.856928825378418,1.091755986213684,-0.0457763671875,0.6561279296875,-0.213623046875
6.449999900000001,0.5003881454467773,-9.854534149169922,1.0869675874710083,0.06103515625,0.79345703125,0.1983642578125
6.4699999,0.4908113479614258,-9.854534149169922,1.0869675874710083,-0.0457763671875,0.6866455078125,-0.152587890625
6.489999900000001,0.4836287498474121,-9.852140426635742,1.0869675874710083,-0.1983642578125,0.6103515625,-0.9002685546875
6.5099999,0.47884035110473633,-9.849745750427246,1.0869675874710083,-0.213623046875,0.640869140625,-0.732421875
6.529999900000001,0.4884171485900879,-9.852140426635742,1.0821791887283325,-0.0152587890625,0.762939453125,-0.0152587890625
6.5499999,0.49799394607543945,-9.852140426635742,1.0821791887283325,0.0457763671875,0.8087158203125,0.1068115234375
6.569999900000001,0.5027823448181152,-9.854534149169922,1.0821791887283325,-0.1220703125,0.732421875,-0.2899169921875
6.5899999000000005,0.49320554733276367,-9.856928825378418,1.0845733880996704,-0.1068115234375,0.6866455078125,-0.3662109375
6.609999900000001,0.4812345504760742,-9.856928825378418,1.0869675874710083,-0.0457763671875,0.6256103515625,-0.4119873046875
6.6299999000000005,0.47884035110473633,-9.859322547912598,1.0869675874710083,-0.1983642578125,0.54931640625,-0.67138671875
6.649999900000001,0.4836287498474121,-9.859322547912598,1.0893617868423462,-0.0457763671875,0.6866455078125,-0.54931640625
6.6699999000000005,0.49559974670410156,-9.859322547912598,1.0869675874710083,-0.0152587890625,0.79345703125,0.030517578125
6.6899999,0.5003881454467773,-9.859322547912598,1.0893617868423462,-0.06103515625,0.7171630859375,0.0762939453125
6.709999900000001,0.49559974670410156,-9.856928825378418,1.091755986213684,-0.091552734375,0.5950927734375,-0.5340576171875
6.7299999,0.48602294921875,-9.854534149169922,1.0893617868423462,-0.152587890625,0.6103515625,-0.579833984375
6.749999900000001,0.47644615173339844,-9.852140426635742,1.0869675874710083,-0.0762939453125,0.732421875,-0.274658203125
6.7699999,0.47644615173339844,-9.852140426635742,1.0821791887283325,0.0457763671875,0.6561279296875,-0.335693359375
6.789999900000001,0.4836287498474121,-9.854534149169922,1.0821791887283325,-0.091552734375,0.579833984375,-0.48828125
6.8099999,0.49320554733276367,-9.852140426635742,1.0845733880996704,-0.030517578125,0.732421875,-0.18310546875
6.829999900000001,0.49799394607543945,-9.854534149169922,1.0869675874710083,-0.0152587890625,0.8392333984375,-0.0152587890625
6.8499999,0.49799394607543945,-9.854534149169922,1.0869675874710083,-0.1373291015625,0.67138671875,-0.2899169921875
6.869999900000001,0.4908113479614258,-9.856928825378418,1.0845733880996704,0,0.640869140625,-0.4730224609375
6.8899999,0.4812345504760742,-9.854534149169922,1.0821791887283325,-0.06103515625,0.6256103515625,-0.3509521484375
6.909999900000001,0.4812345504760742,-9.854534149169922,1.0821791887283325,-0.0762939453125,0.6866455078125,-0.4425048828125
6.9299999,0.4884171485900879,-9.854534149169922,1.0869675874710083,-0.0762939453125,0.6866455078125,-0.4119873046875
6.949999900000001,0.49799394607543945,-9.854534149169922,1.091755986213684,-0.0762939453125,0.732421875,-0.1068115234375
6.9699999,0.5003881454467773,-9.856928825378418,1.094150185585022,-0.0762939453125,0.6561279296875,0.06103515625
6.989999900000001,0.49559974670410156,-9.856928825378418,1.0965443849563599,-0.030517578125,0.7171630859375,-0.396728515625
7.0099999,0.4836287498474121,-9.859322547912598,1.091755986213684,-0.06103515625,0.732421875,-0.640869140625
7.029999900000001,0.47644615173339844,-9.861717224121094,1.0893617868423462,-0.152587890625,0.6561279296875,-0.48828125
7.0499999,0.47884035110473633,-9.861717224121094,1.0893617868423462,-0.030517578125,0.640869140625,-0.244140625
7.069999900000001,0.4884171485900879,-9.864110946655273,1.0869675874710083,-0.030517578125,0.6256103515625,-0.244140625
7.0899999000000005,0.49559974670410156,-9.859322547912598,1.094150185585022,0.030517578125,0.732421875,-0.2593994140625
7.109999900000001,0.5027823448181152,-9.854534149169922,1.1109095811843872,0.0457763671875,0.7476806640625,-0.396728515625
7.1299999000000005,0.5051765441894531,-9.849745750427246,1.115697979927063,-0.335693359375,0.5950927734375,-0.4730224609375
7.149999900000001,0.5027823448181152,-9.849745750427246,1.113303780555725,-0.244140625,0.67138671875,-0.091552734375
7.1699999000000005,0.49559974670410156,-9.854534149169922,1.094150185585022,0.06103515625,0.79345703125,-0.091552734375
7.1899999,0.47884035110473633,-9.854534149169922,1.0773907899856567,0.091552734375,0.7476806640625,-0.335693359375
7.209999900000001,0.4620809257030487,-9.854534149169922,1.0773907899856567,0,0.762939453125,-0.48828125
7.2299999,0.4596867263317108,-9.852140426635742,1.0893617868423462,-0.30517578125,0.6103515625,-0.823974609375
7.249999900000001,0.47884035110473633,-9.854534149169922,1.1037269830703735,-0.3509521484375,0.5340576171875,-0.823974609375
7.2699999,0.5027823448181152,-9.856928825378418,1.1037269830703735,-0.0457763671875,0.640869140625,0
7.289999900000001,0.5147533416748047,-9.859322547912598,1.0869675874710083,0.030517578125,0.8087158203125,0.6256103515625
7.3099999,0.5099649429321289,-9.861717224121094,1.0773907899856567,0.152587890625,0.762939453125,-0.0152587890625
7.329999900000001,0.48602294921875,-9.856928825378418,1.0797849893569946,0.0152587890625,0.701904296875,-0.823974609375
7.3499999,0.4668693244457245,-9.852140426635742,1.091755986213684,-0.2899169921875,0.640869140625,-0.8697509765625
7.369999900000001,0.47165772318840027,-9.849745750427246,1.1085153818130493,-0.30517578125,0.5340576171875,-0.67138671875
7.3899999,0.49320554733276367,-9.849745750427246,1.1085153818130493,-0.0457763671875,0.579833984375,-0.3662109375
7.409999900000001,0.5123591423034668,-9.856928825378418,1.0893617868423462,-0.06103515625,0.7171630859375,0.4119873046875
7.4299999,0.5051765441894531,-9.854534149169922,1.0773907899856567,0.274658203125,0.8392333984375,0.48828125
7.449999900000001,0.48602294921875,-9.854534149169922,1.070208191871643,0.030517578125,0.67138671875,-0.5950927734375
7.4699999,0.4644751250743866,-9.849745750427246,1.0821791887283325,-0.3204345703125,0.5035400390625,-1.2664794921875
7.489999900000001,0.4692635238170624,-9.847352027893066,1.0965443849563599,-0.213623046875,0.5950927734375,-0.7781982421875
7.5099999,0.49320554733276367,-9.849745750427246,1.0989385843276978,-0.1373291015625,0.7171630859375,0
7.529999900000001,0.5219359993934631,-9.854534149169922,1.0893617868423462,0.091552734375,0.762939453125,0.3509521484375
7.5499999,0.5195417404174805,-9.856928825378418,1.0845733880996704,0.244140625,0.7781982421875,0.3662109375
7.569999900000001,0.4908113479614258,-9.854534149169922,1.0845733880996704,-0.091552734375,0.67138671875,-0.18310546875
7.5899999000000005,0.4620809257030487,-9.854534149169922,1.1013327836990356,-0.2288818359375,0.54931640625,-1.2054443359375
7.609999900000001,0.45489832758903503,-9.852140426635742,1.1109095811843872,-0.244140625,0.5340576171875,-1.2359619140625
7.6299999000000005,0.4812345504760742,-9.856928825378418,1.1061211824417114,-0.213623046875,0.6561279296875,-0.18310546875
7.649999900000001,0.5123591423034668,-9.856928825378418,1.0965443849563599,0.1983642578125,0.885009765625,0.67138671875
7.6699999000000005,0.5195417404174805,-9.859322547912598,1.0821791887283325,0.152587890625,0.8392333984375,0.42724609375
7.6899999,0.5003881454467773,-9.859322547912598,1.0773907899856567,-0.1220703125,0.54931640625,-0.5340576171875
7.709999900000001,0.47165772318840027,-9.852140426635742,1.094150185585022,-0.0152587890625,0.6103515625,-1.0528564453125
7.7299999,0.4596867263317108,-9.849745750427246,1.0989385843276978,-0.3662109375,0.6256103515625,-0.8392333984375
7.749999900000001,0.47884035110473633,-9.847352027893066,1.1061211824417114,-0.213623046875,0.54931640625,-0.5645751953125
7.7699999,0.507570743560791,-9.849745750427246,1.1037269830703735,0.244140625,0.7781982421875,0.1373291015625
7.789999900000001,0.507570743560791,-9.852140426635742,1.0893617868423462,0.091552734375,0.732421875,0.8392333984375
7.8099999,0.4884171485900879,-9.852140426635742,1.0869675874710083,-0.0152587890625,0.67138671875,-0.1678466796875
7.829999900000001,0.4620809257030487,-9.852140426635742,1.091755986213684,-0.0762939453125,0.6103515625,-1.52587890625
7.8499999,0.45010992884635925,-9.852140426635742,1.094150185585022,-0.457763671875,0.6103515625,-1.03759765625
7.869999900000001,0.47405192255973816,-9.854534149169922,1.1013327836990356,-0.152587890625,0.6561279296875,-0.06103515625
7.8899999,0.5051765441894531,-9.859322547912598,1.1013327836990356,0.1068115234375,0.7781982421875,0.30517578125
7.909999900000001,0.5027823448181152,-9.861717224121094,1.094150185585022,-0.0457763671875,0.6561279296875,0.4119873046875
7.9299999,0.4668693244457245,-9.859322547912598,1.094150185585022,-0.0762939453125,0.67138671875,-0.3662109375
7.949999900000001,0.42377370595932007,-9.854534149169922,1.0989385843276978,-0.30517578125,0.42724609375,-1.8768310546875
7.9699999,0.40701428055763245,-9.849745750427246,1.113303780555725,-0.8697509765625,0.42724609375,-2.349853515625
7.989999900000001,0.43335050344467163,-9.849745750427246,1.1109095811843872,-0.9613037109375,0.5950927734375,-1.40380859375
8.0099999,0.5003881454467773,-9.856928825378418,1.0845733880996704,-0.0762939453125,0.6103515625,-0.2899169921875
8.0299999,0.5817909836769104,-9.861717224121094,1.0630255937576294,1.0833740234375,0.823974609375,0.4425048828125
8.049999900000001,0.6033388376235962,-9.86650562286377,1.0438719987869263,0.3814697265625,0.9918212890625,2.3193359375
8.069999900000001,0.5171475410461426,-9.854534149169922,1.0845733880996704,0.30517578125,0.946044921875,0.244140625
8.0899999,0.4189853072166443,-9.847352027893066,1.1061211824417114,-0.9613037109375,0.30517578125,-2.5482177734375
8.1099999,0.3663128614425659,-9.840168952941895,1.1276689767837524,-0.640869140625,0.335693359375,-2.4566650390625
8.129999900000001,0.40462008118629456,-9.84495735168457,1.113303780555725,0.06103515625,0.732421875,-0.6561279296875
8.149999900000001,0.49320554733276367,-9.856928825378418,1.0749965906143188,0.152587890625,0.8392333984375,1.2664794921875
8.1699999,0.5434837937355042,-9.859322547912598,1.0678139925003052,0.640869140625,1.0223388671875,1.861572265625
8.1899999,0.5171475410461426,-9.856928825378418,1.0773907899856567,0.18310546875,0.885009765625,0.48828125
8.2099999,0.4620809257030487,-9.852140426635742,1.0989385843276978,-0.6561279296875,0.3509521484375,-1.9073486328125
8.229999900000001,0.4165911078453064,-9.84256362915039,1.1276689767837524,-0.2593994140625,0.4425048828125,-2.2430419921875
8.2499999,0.4357447028160095,-9.854534149169922,1.1061211824417114,-0.42724609375,0.518798828125,-0.79345703125
8.2699999,0.5027823448181152,-9.861717224121094,1.0845733880996704,0.2288818359375,0.8087158203125,0.7781982421875
8.2899999,0.5386953949928284,-9.86650562286377,1.070208191871643,0.7171630859375,1.0833740234375,1.6021728515625
8.309999900000001,0.5147533416748047,-9.864110946655273,1.0678139925003052,-0.0762939453125,0.79345703125,0.5035400390625
8.3299999,0.47165772318840027,-9.852140426635742,1.1013327836990356,-0.3662109375,0.4425048828125,-1.953125
8.3499999,0.43335050344467163,-9.84495735168457,1.1228805780410767,-0.396728515625,0.457763671875,-2.1209716796875
8.3699999,0.4572925269603729,-9.847352027893066,1.1109095811843872,-0.5645751953125,0.6103515625,-0.42724609375
8.389999900000001,0.5099649429321289,-9.852140426635742,1.1013327836990356,0.3509521484375,0.9002685546875,0.7781982421875
8.4099999,0.5291185975074768,-9.861717224121094,1.0797849893569946,0.4730224609375,0.9002685546875,1.1749267578125
8.4299999,0.49559974670410156,-9.859322547912598,1.0773907899856567,-0.152587890625,0.6866455078125,0.030517578125
8.4499999,0.45250412821769714,-9.852140426635742,1.1061211824417114,-0.3204345703125,0.5645751953125,-1.922607421875
8.469999900000001,0.43335050344467163,-9.849745750427246,1.115697979927063,-0.7171630859375,0.335693359375,-2.0294189453125
8.4899999,0.47405192255973816,-9.856928825378418,1.1109095811843872,-0.2593994140625,0.6256103515625,-0.1678466796875
8.5099999,0.5291185975074768,-9.856928825378418,1.0989385843276978,0.7171630859375,1.0833740234375,1.708984375
8.5299999,0.5291185975074768,-9.864110946655273,1.0749965906143188,0.1678466796875,0.8544921875,1.64794921875
8.549999900000001,0.4884171485900879,-9.856928825378418,1.0845733880996704,-0.1373291015625,0.579833984375,-0.8392333984375
8.569999900000001,0.42616790533065796,-9.847352027893066,1.113303780555725,-0.1373291015625,0.54931640625,-2.227783203125
8.5899999,0.4118026793003082,-9.849745750427246,1.113303780555725,-0.823974609375,0.30517578125,-1.495361328125
8.6099999,0.4668693244457245,-9.852140426635742,1.1180921792984009,-0.1220703125,0.5645751953125,-0.6256103515625
8.629999900000001,0.5363011956214905,-9.861717224121094,1.094150185585022,0.518798828125,1.068115234375,1.0223388671875
8.649999900000001,0.5363011956214905,-9.86650562286377,1.070208191871643,0.213623046875,0.91552734375,2.1820068359375
8.6699999,0.49559974670410156,-9.859322547912598,1.0821791887283325,0.1373291015625,0.701904296875,-0.396728515625
8.6899999,0.4405331015586853,-9.849745750427246,1.1061211824417114,-0.457763671875,0.3509521484375,-3.082275390625
8.709999900000001,0.4213795065879822,-9.847352027893066,1.115697979927063,-0.6561279296875,0.3662109375,-1.739501953125
8.729999900000001,0.47644615173339844,-9.849745750427246,1.115697979927063,0,0.762939453125,0.3662109375
8.7499999,0.5386953949928284,-9.859322547912598,1.094150185585022,0.457763671875,0.8697509765625,1.40380859375
8.7699999,0.5339069962501526,-9.861717224121094,1.0773907899856567,0.3509521484375,0.91552734375,1.434326171875
8.7899999,0.47405192255973816,-9.854534149169922,1.0845733880996704,-0.0457763671875,0.823974609375,-0.457763671875
8.809999900000001,0.40940847992897034,-9.847352027893066,1.1085153818130493,-0.6103515625,0.42724609375,-2.8076171875
8.8299999,0.395043283700943,-9.84495735168457,1.1252747774124146,-0.6866455078125,0.3814697265625,-2.3956298828125
8.8499999,0.4620809257030487,-9.852140426635742,1.1180921792984009,-0.0457763671875,0.701904296875,0.1220703125
8.8699999,0.5339069962501526,-9.856928825378418,1.094150185585022,0.518798828125,1.068115234375,2.2735595703125
8.889999900000001,0.5386953949928284,-9.861717224121094,1.0749965906143188,0.3204345703125,0.9307861328125,1.678466796875
8.9099999,0.49799394607543945,-9.856928825378418,1.0821791887283325,-0.1068115234375,0.5645751953125,-1.2664794921875
8.9299999,0.43335050344467163,-9.847352027893066,1.1061211824417114,-0.2593994140625,0.48828125,-2.1514892578125
8.9499999,0.4189853072166443,-9.849745750427246,1.115697979927063,-0.5950927734375,0.48828125,-1.068115234375
8.969999900000001,0.4692635238170624,-9.852140426635742,1.1204863786697388,-0.152587890625,0.732421875,-0.3662109375
8.9899999,0.5267243981361389,-9.861717224121094,1.1013327836990356,0.30517578125,0.8392333984375,0.885009765625
9.0099999,0.5219359993934631,-9.864110946655273,1.0845733880996704,0.213623046875,0.885009765625,1.6937255859375
9.0299999,0.47884035110473633,-9.856928825378418,1.094150185585022,0.1220703125,0.762939453125,-0.4119873046875
9.049999900000001,0.42856210470199585,-9.852140426635742,1.1061211824417114,-0.5950927734375,0.3204345703125,-2.86865234375
9.069999900000001,0.4189853072166443,-9.847352027893066,1.1180921792984009,-0.5950927734375,0.335693359375,-1.89208984375
9.0899999,0.47884035110473633,-9.849745750427246,1.113303780555725,0.091552734375,0.7476806640625,0.4730224609375
9.1099999,0.5410895943641663,-9.856928825378418,1.0893617868423462,0.3662109375,0.8697509765625,1.7547607421875
9.129999900000001,0.5530605912208557,-9.861717224121094,1.0797849893569946,0.3204345703125,0.8087158203125,1.068115234375
9.149999900000001,0.5099649429321289,-9.856928825378418,1.0893617868423462,0.0152587890625,0.6256103515625,-0.640869140625
9.1699999,0.4357447028160095,-9.854534149169922,1.0965443849563599,-0.4730224609375,0.48828125,-1.129150390625
9.1899999,0.3974374830722809,-9.852140426635742,1.1061211824417114,-0.4730224609375,0.48828125,-1.2969970703125
9.209999900000001,0.4213795065879822,-9.852140426635742,1.0989385843276978,-0.1678466796875,0.518798828125,-1.373291015625
9.229999900000001,0.4812345504760742,-9.859322547912598,1.0773907899856567,0.030517578125,0.6866455078125,0.1678466796875
9.2499999,0.5195417404174805,-9.859322547912598,1.0797849893569946,0.48828125,1.068115234375,1.708984375
9.2699999,0.507570743560791,-9.859322547912598,1.0965443849563599,0.152587890625,0.8392333984375,0.6866455078125
9.2899999,0.47405192255973816,-9.852140426635742,1.1109095811843872,-0.732421875,0.2899169921875,-1.9989013671875
9.309999900000001,0.4405331015586853,-9.849745750427246,1.1276689767837524,-0.2899169921875,0.518798828125,-1.89208984375
9.3299999,0.45250412821769714,-9.849745750427246,1.1061211824417114,-0.091552734375,0.7781982421875,0
9.3499999,0.49799394607543945,-9.854534149169922,1.0869675874710083,0.1068115234375,0.762939453125,0.42724609375
9.3699999,0.5339069962501526,-9.856928825378418,1.0821791887283325,0.518798828125,0.8544921875,0.3509521484375
9.389999900000001,0.507570743560791,-9.854534149169922,1.0869675874710083,0,0.7781982421875,0.8544921875
9.4099999,0.4596867263317108,-9.847352027893066,1.1109095811843872,-0.3204345703125,0.6103515625,-0.48828125
9.4299999,0.42377370595932007,-9.840168952941895,1.1324573755264282,-0.3662109375,0.4119873046875,-2.38037109375
9.4499999,0.42856210470199585,-9.84495735168457,1.113303780555725,-0.3509521484375,0.4425048828125,-1.4495849609375
9.469999900000001,0.47884035110473633,-9.849745750427246,1.091755986213684,0.2593994140625,0.8544921875,0.8087158203125
9.4899999,0.5195417404174805,-9.854534149169922,1.0821791887283325,0.6103515625,1.007080078125,1.64794921875
9.5099999,0.5123591423034668,-9.856928825378418,1.0797849893569946,-0.18310546875,0.6103515625,0.30517578125
9.5299999,0.47405192255973816,-9.849745750427246,1.1061211824417114,-0.30517578125,0.48828125,-1.40380859375
9.549999900000001,0.42856210470199585,-9.84256362915039,1.115697979927063,-0.30517578125,0.6103515625,-1.40380859375
9.569999900000001,0.4381389021873474,-9.847352027893066,1.1013327836990356,-0.4730224609375,0.5035400390625,-0.9918212890625
9.5899999,0.4884171485900879,-9.852140426635742,1.094150185585022,0.3662109375,0.7781982421875,-0.213623046875
9.6099999,0.5195417404174805,-9.856928825378418,1.0749965906143188,0.3814697265625,0.8544921875,1.373291015625
9.629999900000001,0.5027823448181152,-9.856928825378418,1.0749965906143188,-0.1373291015625,0.6866455078125,1.0223388671875
9.649999900000001,0.47405192255973816,-9.854534149169922,1.1037269830703735,-0.152587890625,0.4730224609375,-1.861572265625
9.6699999,0.4381389021873474,-9.849745750427246,1.1109095811843872,-0.42724609375,0.457763671875,-1.9683837890625
9.6899999,0.44771572947502136,-9.854534149169922,1.1037269830703735,-0.396728515625,0.5950927734375,-0.152587890625
9.709999900000001,0.49320554733276367,-9.856928825378418,1.1013327836990356,0.3509521484375,0.8392333984375,0.42724609375
9.729999900000001,0.5267243981361389,-9.864110946655273,1.0845733880996704,0.1678466796875,0.79345703125,0.4119873046875
9.7499999,0.507570743560791,-9.859322547912598,1.091755986213684,0.030517578125,0.701904296875,0.3814697265625
9.7699999,0.4692635238170624,-9.852140426635742,1.1085153818130493,-0.1220703125,0.640869140625,-0.7781982421875
9.7899999,0.4429273009300232,-9.852140426635742,1.115697979927063,-0.6103515625,0.3814697265625,-2.105712890625
9.809999900000001,0.45489832758903503,-9.852140426635742,1.113303780555725,-0.244140625,0.6103515625,-1.0986328125
9.8299999,0.4908113479614258,-9.856928825378418,1.094150185585022,0.274658203125,0.9307861328125,0.9613037109375
9.8499999,0.5099649429321289,-9.859322547912598,1.0797849893569946,0.213623046875,0.885009765625,1.0986328125
9.8699999,0.49799394607543945,-9.856928825378418,1.0869675874710083,0.06103515625,0.6866455078125,-0.457763671875
9.889999900000001,0.4620809257030487,-9.849745750427246,1.0989385843276978,-0.274658203125,0.54931640625,-1.2664794921875
9.9099999,0.4429273009300232,-9.847352027893066,1.1061211824417114,-0.4730224609375,0.5035400390625,-0.9613037109375
9.9299999,0.4620809257030487,-9.847352027893066,1.1109095811843872,-0.0152587890625,0.701904296875,-0.6561279296875
9.9499999,0.49559974670410156,-9.854534149169922,1.094150185585022,0.0762939453125,0.7476806640625,0.2899169921875
9.969999900000001,0.5051765441894531,-9.856928825378418,1.0821791887283325,0.1220703125,0.8544921875,0.885009765625
9.9899999,0.4884171485900879,-9.856928825378418,1.0869675874710083,0.091552734375,0.79345703125,-0.244140625
10.0099999,0.4596867263317108,-9.852140426635742,1.0989385843276978,-0.2899169921875,0.54931640625,-1.434326171875
10.0299999,0.44532153010368347,-9.849745750427246,1.1085153818130493,-0.30517578125,0.579833984375,-1.1444091796875
10.049999900000001,0.4668693244457245,-9.849745750427246,1.1085153818130493,-0.152587890625,0.6256103515625,-0.3509521484375
10.069999900000001,0.5003881454467773,-9.852140426635742,1.0989385843276978,0.1373291015625,0.6866455078125,0.244140625
10.0899999,0.5147533416748047,-9.854534149169922,1.091755986213684,0.1373291015625,0.8392333984375,0.5950927734375
10.1099999,0.49559974670410156,-9.854534149169922,1.0893617868423462,-0.1068115234375,0.701904296875,-0.0457763671875
10.129999900000001,0.4668693244457245,-9.849745750427246,1.1013327836990356,-0.213623046875,0.5340576171875,-1.1749267578125
10.149999900000001,0.45010992884635925,-9.847352027893066,1.1085153818130493,-0.213623046875,0.579833984375,-1.2969970703125
10.1699999,0.4644751250743866,-9.849745750427246,1.1061211824417114,-0.2288818359375,0.579833984375,-0.3814697265625
10.1899999,0.49320554733276367,-9.854534149169922,1.1037269830703735,0.152587890625,0.8087158203125,0.3204345703125
10.209999900000001,0.507570743560791,-9.859322547912598,1.091755986213684,0.152587890625,0.7781982421875,0.4730224609375
10.229999900000001,0.49799394607543945,-9.859322547912598,1.0893617868423462,-0.1373291015625,0.6866455078125,-0.091552734375
10.2499999,0.47165772318840027,-9.859322547912598,1.1013327836990356,-0.0457763671875,0.7171630859375,-0.9307861328125
10.2699999,0.45250412821769714,-9.856928825378418,1.1061211824417114,-0.2288818359375,0.5950927734375,-0.885009765625
10.2899999,0.4620809257030487,-9.859322547912598,1.1085153818130493,-0.244140625,0.579833984375,-0.579833984375
10.309999900000001,0.4884171485900879,-9.856928825378418,1.1061211824417114,0.030517578125,0.701904296875,-0.213623046875
10.3299999,0.5123591423034668,-9.861717224121094,1.0965443849563599,0.0457763671875,0.79345703125,0.457763671875
10.3499999,0.5099649429321289,-9.856928825378418,1.094150185585022,0.06103515625,0.823974609375,0.30517578125
10.3699999,0.4884171485900879,-9.852140426635742,1.1013327836990356,-0.0457763671875,0.7781982421875,-0.6256103515625
10.389999900000001,0.4644751250743866,-9.852140426635742,1.1061211824417114,-0.3662109375,0.5645751953125,-1.129150390625
10.4099999,0.4596867263317108,-9.849745750427246,1.113303780555725,-0.152587890625,0.6103515625,-0.762939453125
10.4299999,0.4812345504760742,-9.854534149169922,1.1109095811843872,0,0.6866455078125,-0.1068115234375
10.4499999,0.5051765441894531,-9.856928825378418,1.1013327836990356,0.0152587890625,0.732421875,0.3662109375
10.469999900000001,0.5051765441894531,-9.859322547912598,1.0989385843276978,0.1678466796875,0.8087158203125,0.30517578125
10.4899999,0.48602294921875,-9.859322547912598,1.0965443849563599,-0.0457763671875,0.701904296875,-0.335693359375
10.5099999,0.4620809257030487,-9.856928825378418,1.0989385843276978,-0.213623046875,0.579833984375,-1.0223388671875
10.5299999,0.4572925269603729,-9.854534149169922,1.1061211824417114,-0.1983642578125,0.5950927734375,-1.068115234375
10.549999900000001,0.47405192255973816,-9.856928825378418,1.1013327836990356,-0.152587890625,0.7171630859375,-0.274658203125
10.569999900000001,0.5003881454467773,-9.856928825378418,1.1013327836990356,0.1068115234375,0.7476806640625,0.274658203125
10.5899999,0.5099649429321289,-9.856928825378418,1.0989385843276978,0.2288818359375,0.8087158203125,0.152587890625
10.6099999,0.49320554733276367,-9.856928825378418,1.1013327836990356,-0.0762939453125,0.701904296875,-0.152587890625
10.629999900000001,0.4692635238170624,-9.852140426635742,1.1061211824417114,-0.1983642578125,0.6561279296875,-0.732421875
10.649999900000001,0.45489832758903503,-9.852140426635742,1.1085153818130493,-0.2288818359375,0.640869140625,-1.0528564453125
10.6699999,0.4644751250743866,-9.854534149169922,1.1061211824417114,-0.1220703125,0.5950927734375,-0.6866455078125
10.6899999,0.4884171485900879,-9.854534149169922,1.1013327836990356,0.06103515625,0.7781982421875,0.1678466796875
10.709999900000001,0.5051765441894531,-9.856928825378418,1.0965443849563599,0.0152587890625,0.732421875,0.1983642578125
10.729999900000001,0.5003881454467773,-9.854534149169922,1.0989385843276978,0,0.6561279296875,-0.2288818359375
10.7499999,0.4812345504760742,-9.854534149169922,1.1013327836990356,-0.0762939453125,0.5950927734375,-0.457763671875
10.7699999,0.4620809257030487,-9.854534149169922,1.1013327836990356,-0.2288818359375,0.5340576171875,-0.67138671875
10.7899999,0.4620809257030487,-9.856928825378418,1.1037269830703735,-0.1220703125,0.6256103515625,-0.67138671875
10.809999900000001,0.47644615173339844,-9.856928825378418,1.0989385843276978,-0.0762939453125,0.701904296875,-0.2593994140625
10.8299999,0.49320554733276367,-9.859322547912598,1.0965443849563599,-0.0457763671875,0.7781982421875,0.06103515625
10.8499999,0.5027823448181152,-9.856928825378418,1.1037269830703735,0.1068115234375,0.732421875,-0.1068115234375
10.8699999,0.49320554733276367,-9.856928825378418,1.1037269830703735,-0.1678466796875,0.67138671875,-0.2288818359375
10.889999900000001,0.47644615173339844,-9.854534149169922,1.1061211824417114,-0.1983642578125,0.67138671875,-0.3662109375
10.9099999,0.4644751250743866,-9.854534149169922,1.1085153818130493,-0.091552734375,0.640869140625,-0.701904296875
10.9299999,0.4668693244457245,-9.854534149169922,1.1037269830703735,-0.18310546875,0.579833984375,-0.640869140625
10.9499999,0.47884035110473633,-9.854534149169922,1.1013327836990356,-0.0762939453125,0.6866455078125,-0.1220703125
10.969999900000001,0.4908113479614258,-9.854534149169922,1.0989385843276978,0.0762939453125,0.762939453125,0.0762939453125
10.9899999,0.49320554733276367,-9.854534149169922,1.0989385843276978,-0.0762939453125,0.5950927734375,-0.1068115234375
11.0099999,0.48602294921875,-9.852140426635742,1.1037269830703735,-0.0457763671875,0.67138671875,-0.3814697265625
11.0299999,0.47165772318840027,-9.852140426635742,1.1037269830703735,-0.0762939453125,0.732421875,-0.518798828125
11.049999900000001,0.4668693244457245,-9.854534149169922,1.1037269830703735,-0.244140625,0.67138671875,-0.6866455078125
11.069999900000001,0.47884035110473633,-9.854534149169922,1.1037269830703735,0,0.6866455078125,-0.6103515625
11.0899999,0.49320554733276367,-9.856928825378418,1.0965443849563599,0.030517578125,0.8087158203125,0
11.1099999,0.5003881454467773,-9.854534149169922,1.094150185585022,0,0.762939453125,0.244140625
11.129999900000001,0.49320554733276367,-9.854534149169922,1.0965443849563599,0,0.67138671875,-0.335693359375
11.149999900000001,0.47644615173339844,-9.852140426635742,1.0965443849563599,-0.18310546875,0.54931640625,-0.6256103515625
11.1699999,0.4644751250743866,-9.849745750427246,1.1037269830703735,-0.1068115234375,0.6103515625,-0.67138671875
11.1899999,0.4668693244457245,-9.849745750427246,1.1085153818130493,-0.091552734375,0.701904296875,-0.5340576171875
11.209999900000001,0.47884035110473633,-9.852140426635742,1.1109095811843872,-0.1220703125,0.6866455078125,-0.18310546875
11.229999900000001,0.4908113479614258,-9.852140426635742,1.1085153818130493,0,0.762939453125,0.1373291015625
11.2499999,0.4908113479614258,-9.854534149169922,1.1061211824417114,0.06103515625,0.67138671875,0.0457763671875
11.2699999,0.47884035110473633,-9.856928825378418,1.1013327836990356,-0.1068115234375,0.640869140625,-0.5035400390625
11.2899999,0.4668693244457245,-9.854534149169922,1.1037269830703735,-0.1220703125,0.701904296875,-0.7476806640625
11.309999900000001,0.4692635238170624,-9.856928825378418,1.1037269830703735,-0.18310546875,0.6103515625,-0.5950927734375
11.3299999,0.4836287498474121,-9.854534149169922,1.1061211824417114,-0.1068115234375,0.7171630859375,-0.335693359375
11.3499999,0.49799394607543945,-9.854534149169922,1.1061211824417114,0.0762939453125,0.79345703125,0.091552734375
11.3699999,0.5003881454467773,-9.854534149169922,1.0965443849563599,-0.06103515625,0.6561279296875,0.1068115234375
11.389999900000001,0.4884171485900879,-9.852140426635742,1.0965443849563599,-0.0457763671875,0.6561279296875,-0.3509521484375
11.4099999,0.47405192255973816,-9.849745750427246,1.0965443849563599,-0.1220703125,0.67138671875,-0.732421875
11.4299999,0.4668693244457245,-9.847352027893066,1.0989385843276978,-0.213623046875,0.5950927734375,-0.579833984375
11.4499999,0.47405192255973816,-9.847352027893066,1.1013327836990356,-0.1068115234375,0.6866455078125,-0.3814697265625
11.469999900000001,0.4884171485900879,-9.849745750427246,1.1013327836990356,-0.030517578125,0.732421875,-0.1068115234375
11.4899999,0.49320554733276367,-9.849745750427246,1.0965443849563599,0,0.7476806640625,0.1220703125
11.5099999,0.48602294921875,-9.852140426635742,1.1013327836990356,-0.0152587890625,0.7171630859375,-0.1678466796875
11.5299999,0.4692635238170624,-9.849745750427246,1.1013327836990356,-0.2288818359375,0.701904296875,-0.6561279296875
11.549999900000001,0.4596867263317108,-9.852140426635742,1.1013327836990356,-0.1983642578125,0.6256103515625,-0.701904296875
11.569999900000001,0.4644751250743866,-9.854534149169922,1.1037269830703735,-0.0152587890625,0.7476806640625,-0.457763671875
11.5899999,0.47884035110473633,-9.856928825378418,1.1037269830703735,0.030517578125,0.762939453125,-0.091552734375
11.6099999,0.4884171485900879,-9.859322547912598,1.1037269830703735,0,0.7476806640625,0.030517578125
11.629999900000001,0.48602294921875,-9.856928825378418,1.1085153818130493,-0.0152587890625,0.732421875,-0.1678466796875
11.649999900000001,0.47165772318840027,-9.856928825378418,1.1085153818130493,-0.0762939453125,0.6866455078125,-0.48828125
11.6699999,0.4596867263317108,-9.854534149169922,1.1109095811843872,-0.1983642578125,0.6256103515625,-0.7171630859375
11.6899999,0.47884035110473633,-9.854534149169922,1.1109095811843872,-0.030517578125,0.6866455078125,-0.274658203125
11.709999900000001,0.49559974670410156,-9.852140426635742,1.1085153818130493,-0.0457763671875,0.7476806640625,0.1068115234375
11.729999900000001,0.5003881454467773,-9.854534149169922,1.1061211824417114,-0.030517578125,0.7171630859375,0.1068115234375
11.7499999,0.4908113479614258,-9.854534149169922,1.1061211824417114,-0.030517578125,0.6866455078125,-0.335693359375
11.7699999,0.47405192255973816,-9.852140426635742,1.1061211824417114,-0.213623046875,0.6866455078125,-0.701904296875
11.7899999,0.4692635238170624,-9.854534149169922,1.1037269830703735,-0.1678466796875,0.640869140625,-0.6103515625
11.809999900000001,0.47644615173339844,-9.854534149169922,1.1037269830703735,-0.091552734375,0.640869140625,-0.42724609375
11.8299999,0.4908113479614258,-9.856928825378418,1.1013327836990356,0,0.6866455078125,-0.18310546875
11.8499999,0.5003881454467773,-9.856928825378418,1.0989385843276978,0.0152587890625,0.732421875,0
11.8699999,0.49320554733276367,-9.856928825378418,1.0989385843276978,-0.0457763671875,0.6866455078125,-0.1373291015625
11.889999900000001,0.47644615173339844,-9.856928825378418,1.0965443849563599,-0.0762939453125,0.67138671875,-0.4730224609375
11.9099999,0.4620809257030487,-9.854534149169922,1.0965443849563599,-0.1220703125,0.5950927734375,-0.7781982421875
11.9299999,0.4596867263317108,-9.854534149169922,1.0965443849563599,-0.1373291015625,0.5950927734375,-0.6256103515625
11.9499999,0.47405192255973816,-9.856928825378418,1.0989385843276978,-0.1068115234375,0.7171630859375,-0.1678466796875
11.969999900000001,0.4908113479614258,-9.856928825378418,1.1013327836990356,0.091552734375,0.762939453125,0.06103515625
11.9899999,0.49320554733276367,-9.859322547912598,1.1037269830703735,-0.0457763671875,0.7171630859375,0.030517578125
12.0099999,0.4836287498474121,-9.856928825378418,1.1061211824417114,-0.06103515625,0.67138671875,-0.2899169921875
12.0299999,0.4668693244457245,-9.856928825378418,1.1085153818130493,-0.0152587890625,0.67138671875,-0.5035400390625
12.049999900000001,0.4572925269603729,-9.854534149169922,1.1085153818130493,-0.1220703125,0.6103515625,-0.6561279296875
12.069999900000001,0.4668693244457245,-9.854534149169922,1.115697979927063,-0.091552734375,0.640869140625,-0.6256103515625
12.0899999,0.48602294921875,-9.852140426635742,1.115697979927063,-0.030517578125,0.67138671875,-0.091552734375
12.1099999,0.5003881454467773,-9.854534149169922,1.1109095811843872,-0.0152587890625,0.67138671875,0.244140625
12.129999900000001,0.49799394607543945,-9.852140426635742,1.1085153818130493,0.0457763671875,0.701904296875,-0.0457763671875
12.149999900000001,0.4836287498474121,-9.852140426635742,1.1013327836990356,-0.0762939453125,0.640869140625,-0.67138671875
12.1699999,0.4668693244457245,-9.849745750427246,1.1013327836990356,-0.091552734375,0.640869140625,-0.732421875
12.1899999,0.4644751250743866,-9.847352027893066,1.1037269830703735,-0.091552734375,0.67138671875,-0.5340576171875
12.209999900000001,0.47644615173339844,-9.847352027893066,1.1061211824417114,-0.1220703125,0.701904296875,-0.3662109375
12.229999900000001,0.4908113479614258,-9.849745750427246,1.1085153818130493,-0.0152587890625,0.732421875,-0.0457763671875
12.2499999,0.49559974670410156,-9.852140426635742,1.1061211824417114,0.06103515625,0.762939453125,0.1220703125
12.2699999,0.4884171485900879,-9.854534149169922,1.1061211824417114,0.0457763671875,0.701904296875,-0.213623046875
12.289999900000002,0.47165772318840027,-9.856928825378418,1.1061211824417114,-0.0152587890625,0.67138671875,-0.6561279296875
12.309999900000001,0.4620809257030487,-9.856928825378418,1.1061211824417114,-0.1373291015625,0.6103515625,-0.640869140625
12.3299999,0.4668693244457245,-9.859322547912598,1.1085153818130493,-0.1220703125,0.640869140625,-0.4425048828125
12.3499999,0.4812345504760742,-9.859322547912598,1.1085153818130493,0.0457763671875,0.732421875,-0.1983642578125
12.3699999,0.49320554733276367,-9.859322547912598,1.1061211824417114,-0.0457763671875,0.762939453125,0
12.389999900000001,0.49320554733276367,-9.859322547912598,1.1037269830703735,-0.091552734375,0.640869140625,-0.18310546875
12.4099999,0.4812345504760742,-9.859322547912598,1.1037269830703735,-0.0457763671875,0.6561279296875,-0.4730224609375
12.4299999,0.4692635238170624,-9.856928825378418,1.1061211824417114,-0.1220703125,0.701904296875,-0.5950927734375
12.4499999,0.4668693244457245,-9.856928825378418,1.1085153818130493,-0.152587890625,0.67138671875,-0.6103515625
12.469999900000001,0.47884035110473633,-9.854534149169922,1.1109095811843872,-0.091552734375,0.67138671875,-0.4425048828125
12.4899999,0.4908113479614258,-9.854534149169922,1.1061211824417114,0.0152587890625,0.79345703125,-0.0762939453125
12.5099999,0.49559974670410156,-9.854534149169922,1.1037269830703735,0.06103515625,0.79345703125,0.1983642578125
12.5299999,0.4836287498474121,-9.854534149169922,1.1037269830703735,-0.030517578125,0.701904296875,-0.1373291015625
12.549999900000001,0.4692635238170624,-9.854534149169922,1.1037269830703735,-0.1678466796875,0.6103515625,-0.6561279296875
12.569999900000001,0.4572925269603729,-9.849745750427246,1.113303780555725,-0.0762939453125,0.6561279296875,-0.6103515625
12.5899999,0.4620809257030487,-9.852140426635742,1.113303780555725,-0.152587890625,0.6256103515625,-0.396728515625
12.6099999,0.47644615173339844,-9.852140426635742,1.1109095811843872,-0.152587890625,0.67138671875,-0.3662109375
12.629999900000001,0.4908113479614258,-9.854534149169922,1.1061211824417114,0.1220703125,0.732421875,-0.1373291015625
12.649999900000001,0.4884171485900879,-9.854534149169922,1.0965443849563599,-0.0457763671875,0.67138671875,0.091552734375
12.6699999,0.47884035110473633,-9.854534149169922,1.0989385843276978,-0.0762939453125,0.67138671875,-0.3509521484375
12.6899999,0.4692635238170624,-9.849745750427246,1.1109095811843872,-0.030517578125,0.6866455078125,-0.8697509765625
12.709999900000001,0.4644751250743866,-9.849745750427246,1.1109095811843872,-0.213623046875,0.579833984375,-0.5340576171875
12.729999900000001,0.47405192255973816,-9.852140426635742,1.113303780555725,-0.152587890625,0.6561279296875,-0.244140625
12.7499999,0.4884171485900879,-9.854534149169922,1.1061211824417114,0.1220703125,0.7171630859375,-0.1373291015625
12.7699999,0.4908113479614258,-9.856928825378418,1.0989385843276978,-0.0457763671875,0.7171630859375,0.091552734375
12.789999900000002,0.4812345504760742,-9.854534149169922,1.1013327836990356,0.06103515625,0.762939453125,-0.18310546875
12.809999900000001,0.4692635238170624,-9.854534149169922,1.1085153818130493,-0.2288818359375,0.640869140625,-0.7781982421875
12.8299999,0.4620809257030487,-9.852140426635742,1.1109095811843872,-0.335693359375,0.5645751953125,-0.8087158203125
12.8499999,0.4668693244457245,-9.849745750427246,1.113303780555725,0.06103515625,0.6866455078125,-0.244140625
12.8699999,0.47644615173339844,-9.852140426635742,1.1061211824417114,0.0457763671875,0.6103515625,0.0152587890625
12.889999900000001,0.4812345504760742,-9.852140426635742,1.1061211824417114,-0.0152587890625,0.7171630859375,-0.1068115234375
12.9099999,0.47165772318840027,-9.854534149169922,1.1085153818130493,-0.0152587890625,0.79345703125,-0.3204345703125
12.9299999,0.45250412821769714,-9.854534149169922,1.1109095811843872,-0.091552734375,0.6103515625,-0.48828125
12.9499999,0.4429273009300232,-9.849745750427246,1.1204863786697388,-0.213623046875,0.640869140625,-0.9918212890625
12.969999900000001,0.4596867263317108,-9.849745750427246,1.1276689767837524,-0.18310546875,0.5950927734375,-1.3427734375
12.9899999,0.5003881454467773,-9.849745750427246,1.1228805780410767,-0.2593994140625,0.4730224609375,-0.4730224609375
13.0099999,0.5339069962501526,-9.852140426635742,1.1109095811843872,0.1068115234375,0.8392333984375,0.9918212890625
13.0299999,0.5267243981361389,-9.854534149169922,1.094150185585022,0.335693359375,0.9765625,1.0528564453125
13.049999900000001,0.4908113479614258,-9.854534149169922,1.0797849893569946,-0.18310546875,0.67138671875,-0.579833984375
13.069999900000001,0.4405331015586853,-9.849745750427246,1.091755986213684,-0.1068115234375,0.6103515625,-1.4495849609375
13.0899999,0.42856210470199585,-9.847352027893066,1.1013327836990356,-0.274658203125,0.6103515625,-0.9765625
13.1099999,0.4668693244457245,-9.852140426635742,1.115697979927063,-0.30517578125,0.5340576171875,-0.4730224609375
13.129999900000001,0.5195417404174805,-9.856928825378418,1.1228805780410767,0.213623046875,0.762939453125,0.42724609375
13.149999900000001,0.5267243981361389,-9.859322547912598,1.1085153818130493,0.1068115234375,0.8544921875,1.4495849609375
13.1699999,0.4908113479614258,-9.859322547912598,1.1037269830703735,-0.0762939453125,0.7171630859375,0.152587890625
13.1899999,0.44532153010368347,-9.854534149169922,1.113303780555725,-0.030517578125,0.6103515625,-2.0294189453125
13.209999900000001,0.4189853072166443,-9.852140426635742,1.1180921792984009,-0.4119873046875,0.5340576171875,-1.46484375
13.229999900000001,0.45010992884635925,-9.852140426635742,1.1228805780410767,-0.3204345703125,0.6103515625,-0.091552734375
13.2499999,0.507570743560791,-9.854534149169922,1.1228805780410767,0.2288818359375,0.823974609375,0.396728515625
13.2699999,0.524330198764801,-9.861717224121094,1.1061211824417114,0.1983642578125,0.8697509765625,1.129150390625
13.289999900000002,0.4836287498474121,-9.856928825378418,1.0965443849563599,0.030517578125,0.8697509765625,0.5950927734375
13.309999900000001,0.4357447028160095,-9.854534149169922,1.0989385843276978,-0.3204345703125,0.4425048828125,-1.983642578125
13.3299999,0.4141969084739685,-9.849745750427246,1.113303780555725,-0.3204345703125,0.4119873046875,-2.4871826171875
13.3499999,0.45250412821769714,-9.852140426635742,1.115697979927063,-0.1678466796875,0.6866455078125,-0.2288818359375
13.3699999,0.5171475410461426,-9.856928825378418,1.115697979927063,0.1983642578125,0.946044921875,1.556396484375
13.389999900000001,0.5339069962501526,-9.859322547912598,1.113303780555725,0.396728515625,0.9002685546875,1.28173828125
13.4099999,0.4908113479614258,-9.859322547912598,1.1037269830703735,-0.091552734375,0.67138671875,-0.1983642578125
13.4299999,0.42616790533065796,-9.854534149169922,1.1085153818130493,-0.244140625,0.54931640625,-1.7242431640625
13.4499999,0.3998316824436188,-9.852140426635742,1.115697979927063,-0.2899169921875,0.5035400390625,-1.953125
13.469999900000001,0.4357447028160095,-9.854534149169922,1.1180921792984009,-0.1678466796875,0.5950927734375,-0.6256103515625
13.4899999,0.49799394607543945,-9.856928825378418,1.113303780555725,0.1983642578125,0.8392333984375,1.2054443359375
13.5099999,0.524330198764801,-9.859322547912598,1.1061211824417114,0.1220703125,0.8392333984375,1.2969970703125
13.5299999,0.5027823448181152,-9.856928825378418,1.1013327836990356,0.0152587890625,0.6561279296875,-0.2593994140625
13.549999900000001,0.4189853072166443,-9.847352027893066,1.1109095811843872,-0.091552734375,0.6256103515625,-1.251220703125
13.569999900000001,0.3208230137825012,-9.837775230407715,1.1276689767837524,-0.640869140625,0.3662109375,-2.3193359375
13.5899999,0.31842881441116333,-9.849745750427246,1.113303780555725,-1.220703125,-0.18310546875,-4.3487548828125
13.6099999,0.40940847992897034,-9.852140426635742,1.1228805780410767,0.579833984375,-2.13623046875,-1.52587890625
13.629999900000001,0.5315127968788147,-9.86889934539795,1.0821791887283325,0.9002685546875,-4.0435791015625,4.7760009765625
13.649999900000001,0.6344634294509888,-9.876082420349121,1.0582371950149536,0.518798828125,-0.457763671875,3.570556640625
13.6699999,0.6248866319656372,-9.849745750427246,1.113303780555725,1.373291015625,1.800537109375,0.091552734375
13.6899999,0.5027823448181152,-9.854534149169922,1.094150185585022,-1.739501953125,0.3814697265625,-0.6561279296875
13.709999900000001,0.4189853072166443,-9.837775230407715,1.1276689767837524,-1.1444091796875,0.30517578125,-1.89208984375
13.729999900000001,0.40940847992897034,-9.847352027893066,1.1109095811843872,1.5106201171875,0.823974609375,-2.044677734375
13.7499999,0.40222588181495667,-9.892841339111328,0.9576807022094727,1.0528564453125,-3.0517578125,2.532958984375
13.7699999,0.3926490843296051,-9.938331604003906,0.7948749661445618,2.166748046875,-20.99609375,9.429931640625
13.789999900000002,0.35673606395721436,-9.962273597717285,0.6057330369949341,2.50244140625,-41.0614013671875,10.8489990234375
13.809999900000001,0.2513911724090576,-9.986215591430664,0.5147533416748047,2.7618408203125,-45.7000732421875,4.1046142578125
13.8299999,0.33518823981285095,-9.926360130310059,0.6823474764823914,2.899169921875,-47.18017578125,3.997802734375
13.8499999,0.3519476354122162,-9.911994934082031,0.9026140570640564,1.6937255859375,-40.6036376953125,7.5836181640625
13.8699999,0.5195417404174805,-9.883264541625977,1.1779472827911377,-0.48828125,-35.7208251953125,7.8887939453125
13.889999900000001,0.6153098344802856,-9.950302124023438,1.2713210582733154,-1.190185546875,-39.642333984375,11.0321044921875
13.9099999,0.7254431247711182,-10.122684478759766,1.2737152576446533,-2.9144287109375,-47.7294921875,19.500732421875
13.9299999,0.8475474119186401,-10.378864288330078,1.280897855758667,-8.5601806640625,-46.7529296875,25.9246826171875
13.9499999,0.9552865028381348,-10.764330863952637,1.3048399686813354,-16.9830322265625,-32.77587890625,27.8167724609375
13.969999900000001,1.0295066833496094,-11.197681427001953,1.3910311460494995,-23.2086181640625,-20.8740234375,28.62548828125
13.9899999,1.0223240852355957,-11.57596492767334,1.4724340438842773,-26.6265869140625,-12.7410888671875,25.69580078125
14.0099999,0.9169792532920837,-11.808202743530273,1.522712230682373,-28.8238525390625,0.3662109375,16.6778564453125
14.0299999,0.727837324142456,-11.872846603393555,1.5514427423477173,-29.388427734375,11.1846923828125,6.40869140625
14.049999900000001,0.48602294921875,-11.803414344787598,1.556231141090393,-26.885986328125,8.056640625,-0.457763671875
14.069999900000001,0.2585737705230713,-11.681309700012207,1.4652514457702637,-23.223876953125,-6.5460205078125,-4.7454833984375
14.0899999,0.09576806426048279,-11.525687217712402,1.335964560508728,-20.355224609375,-17.6544189453125,-10.2996826171875
14.1099999,0.028730420395731926,-11.42752456665039,1.1516109704971313,-20.1873779296875,-16.571044921875,-18.0511474609375
14.129999900000001,0.033518824726343155,-11.343728065490723,0.9289502501487732,-21.209716796875,-9.246826171875,-25.2227783203125
14.149999900000001,0.08619125932455063,-11.267112731933594,0.7206547260284424,-20.843505859375,-4.913330078125,-30.94482421875
14.1699999,0.1149216815829277,-11.171344757080078,0.5195417404174805,-19.4854736328125,-1.1444091796875,-36.2701416015625
14.1899999,0.08858546614646912,-10.936713218688965,0.38546648621559143,-18.4783935546875,-0.1373291015625,-41.046142578125
14.209999900000001,0.009576806798577309,-10.565611839294434,0.3256114423274994,-18.280029296875,-5.55419921875,-44.12841796875
14.229999900000001,-0.07900865375995636,-10.110713958740234,0.3208230137825012,-18.402099609375,-14.9078369140625,-44.8455810546875
14.2499999,-0.1628057211637497,-9.627084732055664,0.3447650372982025,-18.4326171875,-22.7203369140625,-44.3572998046875
14.2699999,-0.2082955539226532,-9.167398452758789,0.3495534360408783,-19.2108154296875,-25.0091552734375,-45.0592041015625
14.289999900000002,-0.20350714027881622,-8.7484130859375,0.3256114423274994,-20.7977294921875,-27.313232421875,-46.69189453125
14.309999900000001,-0.17477671802043915,-8.341399192810059,0.2801215946674347,-22.247314453125,-32.53173828125,-47.8515625
14.3299999,-0.08379705995321274,-8.054094314575195,0.15083470940589905,-24.0020751953125,-37.7655029296875,-48.370361328125
14.3499999,0.06464344263076782,-7.8745293617248535,-0.038307227194309235,-25.1312255859375,-45.0286865234375,-46.7376708984375
14.3699999,0.26096799969673157,-7.790732383728027,-0.2561795711517334,-25.177001953125,-51.8798828125,-43.1671142578125
14.389999900000001,0.5027823448181152,-7.797914981842041,-0.507570743560791,-25.0244140625,-52.398681640625,-40.5120849609375
14.4099999,0.751779317855835,-7.805097579956055,-0.7445967197418213,-23.590087890625,-51.1932373046875,-37.8875732421875
14.4299999,1.0223240852355957,-7.771578788757324,-0.9050082564353943,-20.01953125,-50.0946044921875,-34.6527099609375
14.4499999,1.2545616626739502,-7.694964408874512,-1.0295066833496094,-14.801025390625,-43.2281494140625,-32.0281982421875
14.469999900000001,1.4317326545715332,-7.630321025848389,-1.1348515748977661,-10.0860595703125,-33.477783203125,-30.7769775390625
14.4899999,1.5682021379470825,-7.589619159698486,-1.2258312702178955,-6.927490234375,-35.5224609375,-28.289794921875
14.5099999,1.6663644313812256,-7.594407558441162,-1.3479355573654175,-4.1046142578125,-45.5169677734375,-23.590087890625
14.5299999,1.7860745191574097,-7.647080421447754,-1.4460978507995605,-3.0517578125,-48.9349365234375,-18.157958984375
14.549999900000001,1.941697597503662,-7.716512203216553,-1.5107412338256836,-6.77490234375,-45.562744140625,-13.0462646484375
14.569999900000001,2.1380221843719482,-7.857769966125488,-1.5466543436050415,-14.739990234375,-44.12841796875,-6.65283203125
14.5899999,2.341529369354248,-8.054094314575195,-1.6065093278884888,-22.8271484375,-45.6085205078125,2.8839111328125
14.6099999,2.5306711196899414,-8.312667846679688,-1.7118542194366455,-27.77099609375,-43.8385009765625,13.6871337890625
14.629999900000001,2.6455929279327393,-8.56645393371582,-1.8962076902389526,-30.6243896484375,-35.919189453125,22.003173828125
14.649999900000001,2.669534921646118,-8.810662269592285,-2.1380221843719482,-33.4014892578125,-27.2369384765625,28.717041015625
14.6699999,2.3918075561523438,-9.315838813781738,-2.801215887069702,-26.91650390625,-27.1453857421875,49.6978759765625
14.6899999,2.142810583114624,-9.586383819580078,-3.1531636714935303,-14.83154296875,-30.975341796875,60.4705810546875
14.709999900000001,1.8411411046981812,-9.84495735168457,-3.464409828186035,0.91552734375,-29.876708984375,68.2830810546875
14.729999900000001,1.5418659448623657,-10.093954086303711,-3.687070608139038,22.3388671875,-27.3590087890625,76.080322265625
14.7499999,1.2856862545013428,-10.350133895874023,-3.773261785507202,49.713134765625,-27.984619140625,84.9761962890625
14.7699999,1.091755986213684,-10.60152530670166,-3.7469255924224854,76.7364501953125,-27.2064208984375,92.864990234375
14.789999900000002,0.9552865028381348,-10.826580047607422,-3.60566782951355,100.1434326171875,-22.2930908203125,99.7161865234375
14.809999900000001,0.8140285611152649,-11.097125053405762,-3.339911460876465,119.2474365234375,-18.8446044921875,107.2845458984375
14.8299999,0.6655880808830261,-11.314997673034668,-2.9065608978271484,131.3018798828125,-21.148681640625,115.4022216796875
14.8499999,0.4668693244457245,-11.473014831542969,-2.3511061668395996,138.9923095703125,-17.7764892578125,120.697021484375
14.8699999,0.23942017555236816,-11.480196952819824,-1.678335428237915,147.1099853515625,-3.387451171875,122.2381591796875
14.889999900000001,-0.11252748221158981,-11.314997673034668,-0.933738648891449,154.8004150390625,14.190673828125,119.293212890625
14.9099999,-0.6153098344802856,-10.912771224975586,-0.2561795711517334,155.548095703125,26.4892578125,112.579345703125
14.9299999,-1.2234370708465576,-10.44350814819336,0.38067805767059326,154.876708984375,25.2685546875,103.6376953125
14.9499999,-1.8842366933822632,-9.96945571899414,0.9241618514060974,154.693603515625,10.3759765625,96.9696044921875
14.969999900000001,-2.456450939178467,-9.502586364746094,1.4939818382263184,151.9622802734375,-6.744384765625,92.95654296875
14.9899999,-2.8802247047424316,-9.114726066589355,2.075772762298584,147.2015380859375,-11.871337890625,84.9761962890625
15.0099999,-3.1244332790374756,-8.760383605957031,2.7676970958709717,136.932373046875,-8.30078125,73.42529296875
15.0299999,-3.2824504375457764,-8.487444877624512,3.421314239501953,124.114990234375,0.518798828125,63.201904296875
15.049999900000001,-3.4093432426452637,-8.291120529174805,3.995922565460205,112.030029296875,6.378173828125,55.816650390625
15.069999900000001,-3.5865142345428467,-8.154650688171387,4.458003520965576,98.5870361328125,3.84521484375,47.1649169921875
15.0899999,-3.821146011352539,-8.044517517089844,4.824316501617432,82.244873046875,3.7841796875,33.4014892578125
15.1099999,-4.05817174911499,-7.8745293617248535,5.1331682205200195,64.6209716796875,9.063720703125,16.3726806640625
15.129999900000001,-4.2329487800598145,-7.668628215789795,5.386953830718994,48.7060546875,22.39990234375,-1.5106201171875
15.149999900000001,-4.367023944854736,-7.38132381439209,5.525817394256592,34.820556640625,44.3267822265625,-21.6522216796875
15.1699999,-4.467580318450928,-7.151480674743652,5.5329999923706055,29.6630859375,58.7921142578125,-38.787841796875
15.1899999,-4.587290287017822,-6.964732646942139,5.434837818145752,26.0772705078125,51.81884765625,-49.01123046875
15.209999900000001,-4.661510944366455,-6.847416877746582,5.3582234382629395,21.17919921875,36.5753173828125,-54.8553466796875
15.229999900000001,-4.6734819412231445,-6.818686485290527,5.353435039520264,14.8468017578125,34.515380859375,-60.3179931640625
15.2499999,-4.592078685760498,-6.861782073974609,5.497087001800537,6.65283203125,43.9453125,-64.8956298828125
15.2699999,-4.458003520965576,-6.957550048828125,5.736507415771484,-5.43212890625,51.6204833984375,-68.0084228515625
15.289999900000002,-4.335899353027344,-7.12035608291626,5.980715751647949,-19.5159912109375,54.38232421875,-70.0836181640625
15.309999900000001,-4.268861770629883,-7.340622425079346,6.1052141189575195,-33.0963134765625,52.703857421875,-71.380615234375
15.3299999,-4.278438568115234,-7.627926826477051,6.054935932159424,-43.731689453125,40.6951904296875,-70.8770751953125
15.3499999,-4.333505153656006,-7.915230751037598,5.863399982452393,-51.788330078125,21.5301513671875,-70.6634521484375
15.3699999,-4.364629745483398,-8.17141056060791,5.5976433753967285,-60.8062744140625,11.3677978515625,-76.7974853515625
15.389999900000001,-4.292803764343262,-8.401253700256348,5.319916248321533,-70.404052734375,11.505126953125,-88.592529296875
15.4099999,-4.1156325340271,-8.645462036132812,5.03021764755249,-76.84326171875,12.51220703125,-98.6785888671875
15.4299999,-3.8594532012939453,-8.978256225585938,4.644751071929932,-78.155517578125,13.519287109375,-104.2022705078125
15.4499999,-3.552995204925537,-9.375694274902344,4.165910720825195,-76.2939453125,9.1705322265625,-108.0169677734375
15.469999900000001,-3.2345664501190186,-9.758766174316406,3.6559460163116455,-72.2503662109375,-0.6561279296875,-112.823486328125
15.4899999,-2.8778305053710938,-10.02452278137207,3.1747114658355713,-70.6634521484375,-12.1917724609375,-117.523193359375
15.5099999,-2.449268341064453,-10.17296314239502,2.784456491470337,-68.9849853515625,-23.49853515625,-117.4163818359375
15.5299999,-1.9728221893310547,-10.180145263671875,2.4803929328918457,-67.0318603515625,-34.332275390625,-113.677978515625
15.549999900000001,-1.4437036514282227,-10.093954086303711,2.27209734916687,-65.1092529296875,-42.78564453125,-110.931396484375
15.569999900000001,-0.8954314589500427,-9.909601211547852,2.1380221843719482,-66.009521484375,-50.78125,-109.5123291015625
15.5899999,-0.33997663855552673,-9.672574996948242,2.056619167327881,-70.73974609375,-56.9915771484375,-106.4605712890625
15.6099999,0.19871874153614044,-9.421183586120605,2.006340980529785,-75.8209228515625,-57.891845703125,-101.3641357421875
15.629999900000001,0.6847416758537292,-9.20091724395752,1.8770540952682495,-78.4759521484375,-54.6875,-96.3287353515625
15.649999900000001,1.1085153818130493,-8.978256225585938,1.7070658206939697,-80.7342529296875,-54.01611328125,-92.2088623046875
15.6699999,1.45806884765625,-8.810662269592285,1.4245500564575195,-83.831787109375,-55.8929443359375,-87.9364013671875
15.6899999,1.7549498081207275,-8.65982723236084,1.05105459690094,-85.5255126953125,-58.28857421875,-81.7718505859375
15.709999900000001,2.008735179901123,-8.571242332458496,0.5817909836769104,-82.6263427734375,-57.8765869140625,-75.3173828125
15.729999900000001,2.2242133617401123,-8.461109161376953,0.10534487664699554,-76.72119140625,-54.50439453125,-70.7244873046875
15.7499999,2.4205379486083984,-8.42040729522705,-0.3974374830722809,-73.3489990234375,-55.0994873046875,-66.802978515625
15.7699999,2.612074136734009,-8.334216117858887,-0.8212111592292786,-70.8160400390625,-61.8896484375,-59.051513671875
15.789999900000002,2.7700912952423096,-8.286332130432129,-1.2186486721038818,-62.68310546875,-59.112548828125,-48.9501953125
15.809999900000001,2.9161376953125,-8.238448143005371,-1.556231141090393,-51.9866943359375,-55.7098388671875,-38.6505126953125
15.8299999,3.002328872680664,-8.157045364379883,-1.8291701078414917,-43.9300537109375,-61.6455078125,-28.961181640625
15.8499999,3.07415509223938,-8.054094314575195,-2.013523578643799,-38.6505126953125,-67.962646484375,-20.81298828125
15.869999900000002,3.1028854846954346,-7.939172744750977,-2.1356279850006104,-33.2183837890625,-64.2547607421875,-14.58740234375
15.889999900000001,3.1076738834381104,-7.819462776184082,-2.1930887699127197,-27.984619140625,-55.0384521484375,-9.70458984375
15.9099999,3.112462282180786,-7.733271598815918,-2.2242133617401123,-25.6805419921875,-53.6956787109375,-3.7078857421875
15.9299999,3.095702886581421,-7.644686222076416,-2.2170307636260986,-25.20751953125,-57.098388671875,4.119873046875
15.9499999,3.1268274784088135,-7.577648162841797,-2.1787235736846924,-25.7110595703125,-52.215576171875,10.4217529296875
15.969999900000001,3.112462282180786,-7.4986395835876465,-2.1763293743133545,-28.0914306640625,-32.9742431640625,11.993408203125
15.9899999,3.0789434909820557,-7.4100542068481445,-2.169146776199341,-31.4178466796875,-15.4876708984375,12.2222900390625
16.0099999,2.9305028915405273,-7.374141216278076,-2.233790159225464,-34.515380859375,-12.8936767578125,14.9383544921875
16.0299999,2.6862943172454834,-7.400477409362793,-2.365471363067627,-36.5753173828125,-20.3399658203125,19.04296875
16.0499999,2.3942017555236816,-7.510610580444336,-2.5761611461639404,-35.888671875,-26.7333984375,21.3165283203125
16.0699999,2.1140801906585693,-7.659051418304443,-2.829946517944336,-32.0587158203125,-30.731201171875,22.39990234375
16.089999900000002,1.9369091987609863,-7.824251174926758,-3.1028854846954346,-26.7791748046875,-35.247802734375,24.505615234375
16.109999900000002,1.9081788063049316,-7.977479934692383,-3.3063924312591553,-22.125244140625,-37.7960205078125,27.4810791015625
16.1299999,1.9369091987609863,-8.121131896972656,-3.471592426300049,-19.6075439453125,-28.7322998046875,28.717041015625
16.1499999,1.987187385559082,-8.293514251708984,-3.600879430770874,-17.974853515625,-16.4337158203125,28.7933349609375
16.1699999,1.9752163887023926,-8.513781547546387,-3.7900211811065674,-14.0228271484375,-17.3797607421875,31.2957763671875
16.1899999,1.889025092124939,-8.78432559967041,-4.027047157287598,-6.3934326171875,-30.6549072265625,38.4979248046875
16.2099999,1.8100165128707886,-9.105149269104004,-4.2760443687438965,3.2806396484375,-38.177490234375,48.828125
16.2299999,1.7094600200653076,-9.445125579833984,-4.469974517822266,6.3323974609375,-34.881591796875,58.7310791015625
16.249999900000002,1.6160861253738403,-9.751583099365234,-4.563348293304443,6.77490234375,-27.099609375,66.2384033203125
16.269999900000002,1.4676456451416016,-10.034099578857422,-4.577713489532471,8.4075927734375,-20.0042724609375,72.3876953125
16.2899999,1.280897855758667,-10.283096313476562,-4.577713489532471,12.542724609375,-12.176513671875,78.094482421875
16.3099999,1.0127472877502441,-10.465055465698242,-4.577713489532471,20.1568603515625,-2.4566650390625,82.9010009765625
16.3299999,0.7015010714530945,-10.575188636779785,-4.575319290161133,31.3873291015625,8.72802734375,84.564208984375
16.3499999,0.35913026332855225,-10.642226219177246,-4.618414878845215,47.4853515625,18.798828125,83.2672119140625
16.3699999,0.05267243832349777,-10.656591415405273,-4.6471452713012695,67.7337646484375,21.6064453125,81.3140869140625
16.3899999,-0.2106897532939911,-10.678139686584473,-4.613626480102539,86.700439453125,26.2298583984375,78.6285400390625
16.4099999,-0.43095630407333374,-10.730812072753906,-4.5394062995910645,102.142333984375,40.58837890625,73.8677978515625
16.429999900000002,-0.6105214357376099,-10.8505220413208,-4.355052947998047,115.3717041015625,43.7164306640625,70.0225830078125
16.4499999,-0.7541735172271729,-10.960655212402344,-4.02465295791626,126.6937255859375,32.3638916015625,67.352294921875
16.4699999,-0.8643068075180054,-11.061211585998535,-3.552995204925537,133.2244873046875,32.4249267578125,61.7218017578125
16.4899999,-0.950498104095459,-11.094730377197266,-2.9544448852539062,131.5460205078125,44.2657470703125,53.8482666015625
16.5099999,-1.0319008827209473,-11.063606262207031,-2.27209734916687,126.007080078125,46.783447265625,48.1109619140625
16.5299999,-1.1204863786697388,-10.958261489868164,-1.577778935432434,121.52099609375,37.689208984375,44.8150634765625
16.5499999,-1.213860273361206,-10.828974723815918,-0.9481038451194763,114.4561767578125,33.599853515625,38.6199951171875
16.5699999,-1.290474772453308,-10.632649421691895,-0.38067805767059326,103.6376953125,39.0625,29.78515625
16.589999900000002,-1.3742717504501343,-10.436325073242188,0.0933738648891449,93.6431884765625,42.724609375,22.9949951171875
16.609999900000002,-1.4724340438842773,-10.280701637268066,0.44771572947502136,86.9903564453125,38.57421875,18.5699462890625
16.6299999,-1.5921441316604614,-10.158597946166992,0.6631938815116882,83.892822265625,31.9976806640625,14.46533203125
16.6499999,-1.7334020137786865,-10.077195167541504,0.768538773059845,80.780029296875,26.031494140625,8.1634521484375
16.6699999,-1.867477297782898,-10.010157585144043,0.8451532125473022,75.5615234375,22.6898193359375,0.48828125
16.6899999,-1.9800047874450684,-9.943120002746582,0.9576807022094727,68.5882568359375,24.017333984375,-7.0037841796875
16.7099999,-2.075772762298584,-9.885659217834473,1.1540051698684692,60.4248046875,29.449462890625,-14.70947265625
16.7299999,-2.1715409755706787,-9.816226959228516,1.4197616577148438,50.8575439453125,33.7066650390625,-23.5595703125
16.749999900000002,-2.248155355453491,-9.710882186889648,1.7334020137786865,41.0308837890625,32.501220703125,-32.3486328125
16.769999900000002,-2.315192937850952,-9.600749015808105,2.0159177780151367,31.2347412109375,29.3426513671875,-39.9322509765625
16.7899999,-2.3487119674682617,-9.521739959716797,2.2457611560821533,21.087646484375,28.3203125,-45.6085205078125
16.8099999,-2.33913516998291,-9.509769439697266,2.387019157409668,11.7950439453125,29.327392578125,-49.7283935546875
16.8299999,-2.2864625453948975,-9.545681953430176,2.4396915435791016,5.889892578125,28.6407470703125,-52.703857421875
16.8499999,-2.207453966140747,-9.59596061706543,2.432508945465088,3.5858154296875,25.0244140625,-55.7861328125
16.8699999,-2.0925323963165283,-9.648633003234863,2.3535003662109375,2.01416015625,18.4173583984375,-58.4716796875
16.8899999,-1.9249382019042969,-9.694122314453125,2.2433669567108154,0.213623046875,11.932373046875,-60.1959228515625
16.9099999,-1.7190368175506592,-9.744400978088379,2.1116859912872314,1.5106201171875,15.5792236328125,-61.82861328125
16.929999900000002,-1.4939818382263184,-9.78989028930664,1.9991583824157715,6.2713623046875,24.2462158203125,-63.568115234375
16.9499999,-1.2617442607879639,-9.746794700622559,1.9752163887023926,10.3607177734375,24.3988037109375,-65.9637451171875
16.9699999,-1.0414776802062988,-9.63187313079834,2.0638017654418945,11.41357421875,16.4642333984375,-68.267822265625
16.9899999,-0.8571242094039917,-9.454702377319336,2.279279947280884,9.2620849609375,8.4991455078125,-68.572998046875
17.0099999,-0.689530074596405,-9.26795482635498,2.5737667083740234,3.60107421875,3.90625,-68.939208984375
17.0299999,-0.5171475410461426,-9.097966194152832,2.8850131034851074,-6.40869140625,2.2125244140625,-74.462890625
17.0499999,-0.31842881441116333,-8.98543930053711,3.1220390796661377,-17.27294921875,2.0294189453125,-82.5958251953125
17.0699999,-0.090979665517807,-8.956708908081055,3.203441858291626,-25.0091552734375,-1.9378662109375,-88.348388671875
17.089999900000002,0.1867477297782898,-9.002198219299316,3.1100680828094482,-29.96826171875,-10.4217529296875,-91.30859375
17.109999900000002,0.5051765441894531,-9.083600997924805,2.8850131034851074,-32.9742431640625,-18.2647705078125,-94.8638916015625
17.1299999,0.8834604024887085,-9.141061782836914,2.607285737991333,-34.271240234375,-20.6146240234375,-99.609375
17.1499999,1.3000515699386597,-9.155426979064941,2.33913516998291,-34.7747802734375,-19.6533203125,-102.203369140625
17.1699999,1.7597382068634033,-9.081207275390625,2.145204782485962,-37.872314453125,-22.0947265625,-100.677490234375
17.1899999,2.209848165512085,-9.002198219299316,2.013523578643799,-45.3033447265625,-24.4903564453125,-97.412109375
17.2099999,2.6360161304473877,-8.918401718139648,1.889025092124939,-52.1697998046875,-22.39990234375,-93.6279296875
17.2299999,3.00711727142334,-8.87291145324707,1.7310078144073486,-53.0548095703125,-21.8048095703125,-88.1805419921875
17.249999900000002,3.3016040325164795,-8.860940933227539,1.5107412338256836,-48.2635498046875,-24.4293212890625,-82.8094482421875
17.269999900000002,3.509899616241455,-8.880094528198242,1.2210428714752197,-43.9453125,-28.86962890625,-80.2001953125
17.2899999,3.663128614425659,-8.87291145324707,0.9528923034667969,-41.7938232421875,-31.524658203125,-80.2459716796875
17.3099999,3.7924153804779053,-8.810662269592285,0.7398083209991455,-39.4287109375,-31.0516357421875,-80.7647705078125
17.3299999,3.952826976776123,-8.700529098510742,0.5961562395095825,-37.9638671875,-36.529541015625,-78.582763671875
17.3499999,4.199429988861084,-8.56645393371582,0.5123591423034668,-38.055419921875,-43.4722900390625,-74.03564453125
17.3699999,4.525041103363037,-8.437167167663574,0.4405331015586853,-37.8570556640625,-38.055419921875,-69.8394775390625
17.3899999,4.910507678985596,-8.362946510314941,0.3423708379268646,-35.675048828125,-24.993896484375,-64.8193359375
17.409999900000003,5.324704647064209,-8.374917984008789,0.1843535304069519,-30.82275390625,-16.8609619140625,-56.488037109375
17.429999900000002,5.681440830230713,-8.463502883911133,-0.06464344263076782,-22.5830078125,-15.045166015625,-46.3104248046875
17.4499999,5.9519853591918945,-8.59997272491455,-0.35434186458587646,-12.0849609375,-13.885498046875,-37.506103515625
17.4699999,6.114790916442871,-8.743624687194824,-0.6488286852836609,-1.1138916015625,-11.2457275390625,-30.1361083984375
17.4899999,6.191405773162842,-8.844181060791016,-0.8619126081466675,8.0108642578125,-12.725830078125,-21.331787109375
17.5099999,6.196194171905518,-8.880094528198242,-0.9744400978088379,14.434814453125,-16.357421875,-12.02392578125
17.5299999,6.174646377563477,-8.841787338256836,-0.9409212470054626,17.791748046875,-14.801025390625,-5.279541015625
17.5499999,6.114790916442871,-8.71489429473877,-0.8068459630012512,17.76123046875,-6.2103271484375,-1.8157958984375
17.5699999,6.021417140960693,-8.513781547546387,-0.6009446382522583,15.411376953125,-1.5716552734375,1.8463134765625
17.589999900000002,5.896918773651123,-8.281543731689453,-0.395043283700943,12.6495361328125,-5.5694580078125,7.0037841796875
17.609999900000002,5.7556610107421875,-8.04691219329834,-0.23942017555236816,10.6201171875,-9.58251953125,11.0321044921875
17.6299999,5.626373767852783,-7.826645374298096,-0.1388636976480484,9.9029541015625,-6.40869140625,11.9476318359375
17.6499999,5.513846397399902,-7.625532627105713,-0.0933738648891449,10.2996826171875,-0.67138671875,11.8865966796875
17.6699999,5.410895824432373,-7.467514991760254,-0.10055647045373917,10.986328125,-1.89208984375,13.3514404296875
17.6899999,5.336675643920898,-7.350199222564697,-0.13407529890537262,11.9781494140625,-9.09423828125,15.80810546875
17.7099999,5.284003257751465,-7.268796443939209,-0.19632454216480255,13.6871337890625,-11.688232421875,16.78466796875
17.7299999,5.2672438621521,-7.175422668457031,-0.23942017555236816,15.9759521484375,-8.8653564453125,15.533447265625
17.749999900000002,5.295974254608154,-7.01979923248291,-0.2346317619085312,18.3258056640625,-4.2572021484375,14.2822265625
17.769999900000002,5.363011837005615,-6.7923502922058105,-0.181959331035614,20.7672119140625,-1.068115234375,16.2200927734375
17.7899999,5.453991413116455,-6.536170482635498,-0.05746084079146385,23.345947265625,1.5869140625,21.6064453125
17.8099999,5.535394191741943,-6.270414352416992,0.10534487664699554,24.1851806640625,4.425048828125,28.0609130859375
17.8299999,5.590460777282715,-6.030993938446045,0.3208230137825012,22.8424072265625,6.9732666015625,34.60693359375
17.8499999,5.5976433753967285,-5.846640586853027,0.5602431893348694,21.0113525390625,12.481689453125,41.4581298828125
17.8699999,5.540182590484619,-5.781997203826904,0.7733271718025208,18.7225341796875,16.8304443359375,49.49951171875
17.8899999,5.420472621917725,-5.863399982452393,0.9313444495201111,14.6484375,10.040283203125,58.441162109375
17.909999900000003,5.2696380615234375,-6.121973514556885,0.9959878921508789,11.4593505859375,-3.0059814453125,67.352294921875
17.929999900000002,5.114014625549316,-6.497863292694092,0.9385270476341248,12.8021240234375,-11.0321044921875,75.5615234375
17.9499999,4.960785865783691,-6.950367450714111,0.8427590131759644,16.6015625,-11.5814208984375,82.82470703125
17.9699999,4.821922302246094,-7.3885064125061035,0.751779317855835,15.80810546875,-6.8817138671875,86.5325927734375
17.9899999,4.654327869415283,-7.829039573669434,0.6847416758537292,10.8642578125,2.8839111328125,87.5701904296875
18.0099999,4.460397720336914,-8.259995460510254,0.6584054827690125,7.232666015625,8.9263916015625,90.3167724609375
18.0299999,4.197035789489746,-8.681375503540039,0.646434485912323,5.889892578125,8.85009765625,96.5576171875
18.0499999,3.8810009956359863,-9.038111686706543,0.6344634294509888,2.899169921875,9.674072265625,101.9134521484375
18.0699999,3.5027170181274414,-9.330204010009766,0.5961562395095825,-0.1983642578125,16.7388916015625,103.912353515625
18.089999900000002,3.07415509223938,-9.591172218322754,0.5099649429321289,0.732421875,22.3236083984375,107.1624755859375
18.109999900000002,2.585737943649292,-9.78989028930664,0.40462008118629456,5.035400390625,21.575927734375,113.9068603515625
18.1299999,2.0446481704711914,-9.940725326538086,0.2801215946674347,8.636474609375,20.3857421875,117.034912109375
18.1499999,1.4676456451416016,-10.007762908935547,0.19632454216480255,11.65771484375,21.05712890625,112.823486328125
18.1699999,0.9074024558067322,-10.000580787658691,0.1628057211637497,16.2506103515625,18.06640625,106.8572998046875
18.1899999,0.3758896589279175,-9.979032516479492,0.2322375625371933,21.3470458984375,11.6424560546875,103.790283203125
18.2099999,-0.11252748221158981,-9.976638793945312,0.37828385829925537,21.0113525390625,12.6190185546875,97.3663330078125
18.2299999,-0.5913678407669067,-9.99339771270752,0.6105214357376099,16.4794921875,20.0653076171875,84.04541015625
18.249999900000002,-1.048660397529602,-10.031704902648926,0.8834604024887085,12.63427734375,23.834228515625,67.93212890625
18.269999900000002,-1.4724340438842773,-10.0580415725708,1.1085153818130493,10.68115234375,19.9127197265625,54.443359375
18.2899999,-1.7932571172714233,-10.086771965026855,1.2832920551300049,10.2081298828125,15.5029296875,43.853759765625
18.3099999,-2.011129379272461,-10.158597946166992,1.3766659498214722,10.406494140625,18.768310546875,33.6151123046875
18.3299999,-2.145204782485962,-10.35252857208252,1.4389152526855469,11.810302734375,18.2952880859375,19.3939208984375
18.3499999,-2.1068975925445557,-10.429142951965332,1.45806884765625,11.688232421875,13.61083984375,16.357421875
18.3699999,-2.0470423698425293,-10.491392135620117,1.4700398445129395,9.70458984375,13.946533203125,12.237548828125
18.3899999,-1.98958158493042,-10.500968933105469,1.5203180313110352,5.67626953125,12.3291015625,9.307861328125
18.409999900000003,-1.941697597503662,-10.438719749450684,1.580173134803772,0.457763671875,9.002685546875,6.9122314453125
18.429999900000002,-1.8938134908676147,-10.366893768310547,1.6136919260025024,-4.8065185546875,9.1400146484375,3.1890869140625
18.4499999,-1.8531121015548706,-10.321403503417969,1.5945383310317993,-10.31494140625,7.6141357421875,0.42724609375
18.4699999,-1.7980455160140991,-10.345345497131348,1.482010841369629,-16.7388916015625,1.983642578125,1.007080078125
18.4899999,-1.7357962131500244,-10.484209060668945,1.2737152576446533,-21.66748046875,-0.7781982421875,3.021240234375
18.5099999,-1.6735470294952393,-10.6925048828125,0.9888052940368652,-22.5372314453125,1.9989013671875,3.8909912109375
18.5299999,-1.6065093278884888,-10.87446403503418,0.6703764796257019,-19.1192626953125,7.0648193359375,3.5858154296875
18.5499999,-1.556231141090393,-10.936713218688965,0.3902548849582672,-12.7410888671875,11.322021484375,2.3651123046875
18.5699999,-1.53707754611969,-10.862493515014648,0.18914192914962769,-5.584716796875,15.655517578125,-0.274658203125
18.589999900000002,-1.5514427423477173,-10.673351287841797,0.11013327538967133,-0.42724609375,16.265869140625,-2.3956298828125
18.609999900000002,-1.5969325304031372,-10.417171478271484,0.15562310814857483,2.5177001953125,9.2926025390625,-2.0904541015625
18.6299999,-1.647210717201233,-10.139444351196289,0.3064578175544739,3.875732421875,-0.9918212890625,-1.0528564453125
18.6499999,-1.6615760326385498,-9.854534149169922,0.5291185975074768,3.6773681640625,-6.500244140625,-1.8463134765625
18.6699999,-1.623268723487854,-9.57201862335205,0.7805097699165344,1.89208984375,-4.2724609375,-4.547119140625
18.6899999,-1.5394717454910278,-9.351752281188965,1.0103530883789062,-1.1138916015625,2.0294189453125,-6.8359375
18.7099999,-1.4437036514282227,-9.208099365234375,1.173158884048462,-4.5928955078125,5.37109375,-7.049560546875
18.7299999,-1.3742717504501343,-9.186552047729492,1.2401964664459229,-7.2784423828125,3.1585693359375,-6.16455078125
18.749999900000002,-1.3407529592514038,-9.260771751403809,1.2042834758758545,-9.0484619140625,-2.044677734375,-5.2642822265625
18.769999900000002,-1.3239935636520386,-9.404424667358398,1.1013327836990356,-10.0860595703125,-5.2947998046875,-4.45556640625
18.7899999,-1.3120225667953491,-9.603142738342285,0.950498104095459,-10.43701171875,-3.96728515625,-3.8909912109375
18.8099999,-1.314416766166687,-9.856928825378418,0.768538773059845,-9.735107421875,-0.7171630859375,-3.4637451171875
18.8299999,-1.338358759880066,-10.101137161254883,0.5817909836769104,-7.3699951171875,-1.0986328125,-3.021240234375
18.8499999,-1.3862427473068237,-10.285490036010742,0.3974374830722809,-3.8604736328125,-5.6610107421875,-3.265380859375
18.8699999,-1.4269442558288574,-10.3549222946167,0.26336219906806946,-0.1678466796875,-10.0250244140625,-4.5013427734375
18.8899999,-1.4413094520568848,-10.302249908447266,0.21547815203666687,2.5177001953125,-9.2620849609375,-6.500244140625
18.909999900000003,-1.4197616577148438,-10.170568466186523,0.26815059781074524,3.204345703125,-5.0201416015625,-7.9193115234375
18.929999900000002,-1.3718775510787964,-10.002974510192871,0.4141969084739685,2.044677734375,-3.662109375,-8.270263671875
18.9499999,-1.316810965538025,-9.859322547912598,0.6105214357376099,0.1220703125,-5.615234375,-8.6822509765625
18.9699999,-1.2521674633026123,-9.763554573059082,0.811634361743927,-2.0904541015625,-6.4849853515625,-10.0250244140625
18.9899999,-1.1851298809051514,-9.727641105651855,0.9744400978088379,-4.638671875,-3.3111572265625,-11.5814208984375
19.0099999,-1.1204863786697388,-9.751583099365234,1.0678139925003052,-6.9732666015625,1.220703125,-12.5732421875
19.0299999,-1.0797849893569946,-9.823410034179688,1.0678139925003052,-8.11767578125,3.326416015625,-13.1072998046875
19.0499999,-1.0678139925003052,-9.916783332824707,0.9888052940368652,-7.1868896484375,2.50244140625,-13.2904052734375
19.0699999,-1.0797849893569946,-10.017339706420898,0.8547300100326538,-4.638671875,-0.42724609375,-12.664794921875
19.089999900000002,-1.094150185585022,-10.096348762512207,0.7158663272857666,-1.678466796875,-4.150390625,-11.1541748046875
19.109999900000002,-1.091755986213684,-10.132261276245117,0.6153098344802856,0.5950927734375,-5.9967041015625,-10.223388671875
19.1299999,-1.0654197931289673,-10.122684478759766,0.5674257874488831,1.953125,-5.8135986328125,-10.2691650390625
19.1499999,-1.015141487121582,-10.062829971313477,0.5722141861915588,2.5787353515625,-6.8206787109375,-10.4522705078125
19.1699999,-0.9433154463768005,-9.99339771270752,0.6105214357376099,2.960205078125,-8.636474609375,-10.223388671875
19.1899999,-0.8595184087753296,-9.938331604003906,0.6751648783683777,3.2806396484375,-8.9263916015625,-10.1318359375
19.2099999,-0.7733271718025208,-9.93354320526123,0.7350199222564697,3.47900390625,-7.232666015625,-10.2386474609375
19.2299999,-0.6871358752250671,-9.976638793945312,0.790086567401886,4.425048828125,-6.34765625,-9.796142578125
19.249999900000002,-0.6105214357376099,-10.06043529510498,0.8523358106613159,6.8511962890625,-5.889892578125,-9.368896484375
19.269999900000002,-0.5578489899635315,-10.17296314239502,0.9265560507774353,10.07080078125,-2.2125244140625,-10.0555419921875
19.2899999,-0.5363011956214905,-10.295066833496094,1.0055646896362305,12.8021240234375,-0.0152587890625,-10.43701171875
19.3099999,-0.545877993106842,-10.42195987701416,1.0749965906143188,14.9993896484375,-5.79833984375,-8.97216796875
19.3299999,-0.5722141861915588,-10.529699325561523,1.1324573755264282,17.51708984375,-11.7340087890625,-8.0108642578125
19.3499999,-0.586579442024231,-10.594342231750488,1.1827356815338135,19.927978515625,-9.368896484375,-10.8642578125
19.3699999,-0.569819986820221,-10.618284225463867,1.2330138683319092,20.6146240234375,-4.791259765625,-16.2811279296875
19.3899999,-0.5099649429321289,-10.620678901672363,1.2856862545013428,18.9666748046875,-4.39453125,-20.5230712890625
19.409999900000003,-0.43095630407333374,-10.63504409790039,1.316810965538025,16.143798828125,-3.814697265625,-23.4375
19.429999900000002,-0.3471592366695404,-10.649409294128418,1.316810965538025,13.6566162109375,2.4871826171875,-28.472900390625
19.4499999,-0.28730419278144836,-10.644620895385742,1.280897855758667,12.4359130859375,6.1492919921875,-35.3851318359375
19.4699999,-0.2561795711517334,-10.584765434265137,1.237802267074585,11.2457275390625,-0.9765625,-40.924072265625
19.4899999,-0.22026655077934265,-10.460267066955566,1.2018892765045166,8.0108642578125,-11.8560791015625,-45.684814453125
19.5099999,-0.15322890877723694,-10.287884712219238,1.194706678390503,2.3040771484375,-13.9007568359375,-51.5289306640625
19.5299999,-0.035913024097681046,-10.101137161254883,1.2066776752471924,-3.6163330078125,-5.9051513671875,-58.9447021484375
19.5499999,0.10534487664699554,-9.919178009033203,1.2401964664459229,-9.674072265625,-1.8463134765625,-65.5975341796875
19.5699999,0.26096799969673157,-9.751583099365234,1.2737152576446533,-18.157958984375,-7.7972412109375,-70.80078125
19.589999900000002,0.42616790533065796,-9.591172218322754,1.290474772453308,-28.9764404296875,-12.4664306640625,-76.2176513671875
19.609999900000002,0.6200982332229614,-9.418789863586426,1.3048399686813354,-39.61181640625,-7.14111328125,-82.3974609375
19.6299999,0.8379706144332886,-9.248801231384277,1.2832920551300049,-49.31640625,3.2806396484375,-88.7298583984375
19.6499999,1.0773907899856567,-9.14585018157959,1.173158884048462,-58.319091796875,9.185791015625,-95.1995849609375
19.6699999,1.3263877630233765,-9.102754592895508,0.9768342971801758,-62.6678466796875,10.3607177734375,-100.433349609375
19.6899999,1.5705963373184204,-9.133879661560059,0.6440402865409851,-58.990478515625,12.420654296875,-104.248046875
19.7099999,1.8291701078414917,-9.172186851501465,0.26815059781074524,-50.1251220703125,11.474609375,-107.6812744140625
19.7299999,2.1164743900299072,-9.17936897277832,-0.05985504388809204,-42.7093505859375,6.3629150390625,-109.8175048828125
19.749999900000002,2.427720546722412,-9.117119789123535,-0.2968810200691223,-37.2772216796875,4.974365234375,-111.0687255859375
19.769999900000002,2.765302896499634,-9.02135181427002,-0.395043283700943,-32.16552734375,6.317138671875,-109.6649169921875
19.7899999,3.112462282180786,-8.868123054504395,-0.38067805767059326,-29.96826171875,4.57763671875,-106.99462890625
19.8099999,3.44765043258667,-8.686163902282715,-0.31603461503982544,-31.2042236328125,2.9449462890625,-105.46875
19.8299999,3.756502389907837,-8.449137687683105,-0.2513911724090576,-32.1197509765625,2.8839111328125,-105.4229736328125
19.8499999,4.022258758544922,-8.154650688171387,-0.23702596127986908,-31.494140625,0.30517578125,-106.01806640625
19.8699999,4.252102375030518,-7.829039573669434,-0.304063618183136,-29.6630859375,-6.9732666015625,-105.712890625
19.8899999,4.46518611907959,-7.4986395835876465,-0.45250412821769714,-27.0233154296875,-19.83642578125,-103.6224365234375
19.909999900000003,4.6950297355651855,-7.156269073486328,-0.629675030708313,-23.3154296875,-35.308837890625,-100.8148193359375
19.929999900000002,4.960785865783691,-6.8162922859191895,-0.8140285611152649,-18.3563232421875,-46.2646484375,-97.4273681640625
19.9499999,5.2480902671813965,-6.490680694580078,-0.9864110946655273,-13.5498046875,-55.17578125,-91.85791015625
19.9699999,5.571307182312012,-6.208165168762207,-1.1779472827911377,-10.650634765625,-70.9075927734375,-82.0465087890625
19.9899999,5.913678169250488,-5.987898349761963,-1.381454348564148,-8.453369140625,-85.9832763671875,-68.6492919921875
20.0099999,6.27280855178833,-5.8442463874816895,-1.5921441316604614,-5.096435546875,-84.808349609375,-55.4351806640625
20.0299999,6.617573261260986,-5.78678560256958,-1.7836803197860718,-3.5858154296875,-72.7996826171875,-41.4886474609375
20.0499999,6.936002254486084,-5.7987565994262695,-1.965639591217041,-1.6021728515625,-67.413330078125,-26.123046875
20.0699999,7.168240070343018,-5.868188381195068,-2.121262788772583,3.6468505859375,-69.580078125,-8.087158203125
20.089999900000002,7.340622425079346,-5.961562156677246,-2.250549554824829,10.31494140625,-67.56591796875,9.002685546875
20.109999900000002,7.438784599304199,-6.054935932159424,-2.3511061668395996,15.1824951171875,-59.02099609375,24.5513916015625
20.1299999,7.501033782958984,-6.169857978820801,-2.410961151123047,17.5628662109375,-56.09130859375,42.6788330078125
20.1499999,7.536946773529053,-6.320692539215088,-2.3989901542663574,19.7906494140625,-61.7218017578125,65.0177001953125
20.1699999,7.510610580444336,-6.481103897094727,-2.360682964324951,20.233154296875,-61.2335205078125,85.540771484375
20.1899999,7.445967197418213,-6.646304130554199,-2.296039342880249,17.8070068359375,-46.9818115234375,99.5635986328125
20.2099999,7.3023152351379395,-6.787561893463135,-2.3056161403656006,17.2882080078125,-27.130126953125,109.1766357421875
20.2299999,7.094019412994385,-6.9455790519714355,-2.38462495803833,22.4761962890625,-13.12255859375,118.10302734375
20.249999900000002,6.818686485290527,-7.139509677886963,-2.5234885215759277,29.6478271484375,-3.0975341796875,125.91552734375
20.269999900000002,6.50025749206543,-7.371747016906738,-2.6839001178741455,35.9954833984375,10.5438232421875,128.72314453125
20.2899999,6.189011573791504,-7.63989782333374,-2.7724854946136475,44.8760986328125,21.026611328125,129.2724609375
20.3099999,5.925649166107178,-8.020575523376465,-2.715024709701538,58.0291748046875,22.2015380859375,133.4381103515625
20.3299999,5.7341132164001465,-8.47547435760498,-2.494758129119873,68.5882568359375,20.4620361328125,137.7716064453125
20.3499999,5.57370138168335,-8.96149730682373,-2.1715409755706787,77.81982421875,27.7099609375,136.6424560546875
20.3699999,5.355829238891602,-9.44752025604248,-1.8171991109848022,91.6595458984375,32.958984375,130.7220458984375
20.3899999,4.982333660125732,-9.81143856048584,-1.4484920501708984,103.94287109375,25.726318359375,120.452880859375
20.409999900000003,4.441244125366211,-10.043676376342773,-1.1013327836990356,108.8104248046875,21.697998046875,101.9287109375
20.429999900000002,3.758896589279175,-10.144232749938965,-0.7445967197418213,110.04638671875,25.93994140625,78.857421875
