Time (seconds),acc_x,acc_y,acc_z,gyro_x,gyro_y,gyro_z
0.0156019,-0.02025200054049492,-0.9862479567527771,-0.0773480013012886,-11.550000190734863,-11.427499771118164,-5.582499980926514
0.0535944,-0.025863999500870705,-0.9945439696311951,-0.08466799557209015,-11.095000267028809,-12.180000305175781,-5.005000114440918
0.06922675,-0.015371999703347683,-1.0006439685821533,-0.09345199912786484,-11.427499771118164,-12.337499618530273,-4.409999847412109
0.0848591,-0.014883999712765217,-0.9967399835586548,-0.12004800140857697,-11.305000305175781,-12.145000457763672,-3.9375
0.100461,-0.008539999835193157,-0.9921039938926697,-0.14151999354362488,-11.829999923706055,-10.867500305175781,-3.990000009536743
0.116091,0.006099999882280827,-0.9935680031776428,-0.15030398964881897,-11.829999923706055,-9.117500305175781,-3.4825000762939453
0.131721,0.018055999651551247,-0.985759973526001,-0.15811198949813843,-10.552499771118164,-7.227499961853027,-1.8550000190734863
0.1691012,0.024156000465154648,-0.9720959663391113,-0.152988001704216,-9.012499809265137,-5.512499809265137,-0.03500000014901161
0.1847348,0.02781599946320057,-0.9689239859580994,-0.16421200335025787,-8.71500015258789,-4.602499961853027,2.2750000953674316
0.2003684,0.02513200044631958,-0.9730719923973083,-0.1768999993801117,-9.082500457763672,-4.392499923706055,4.287499904632568
0.21599745,0.004147999919950962,-1.0003999471664429,-0.17421600222587585,-9.257499694824219,-4.357500076293945,5.827499866485596
0.2316265,-0.024887999519705772,-1.0413919687271118,-0.16250400245189667,-7.735000133514404,-4.65500020980835,5.670000076293945
0.253511,-0.04684799909591675,-1.047003984451294,-0.1466439962387085,-3.569999933242798,-5.477499961853027,4.322500228881836
0.2691418,-0.048312000930309296,-1.0243120193481445,-0.1298079937696457,1.0499999523162842,-5.84499979019165,1.9249999523162842
0.2847726,-0.04196799919009209,-1.0050359964370728,-0.1227319985628128,3.325000047683716,-6.247499942779541,0.3149999976158142
0.3160074,-0.029767999425530434,-0.9933239817619324,-0.115167997777462,3.815000057220459,-6.579999923706055,-0.7524999976158142
0.3538043,-0.024156000465154648,-0.9918599724769592,-0.10028399527072906,3.307500123977661,-6.40500020980835,-1.3825000524520874
0.3692889,-0.01781199872493744,-0.9950319528579712,-0.10052800178527832,3.115000009536743,-6.860000133514404,-0.7875000238418579
0.3850327,-0.01512799970805645,-0.9996680021286011,-0.10052800178527832,3.4825000762939453,-8.015000343322754,0.8224999904632568
0.3928503,-0.014639999717473984,-0.9996680021286011,-0.10979999601840973,4.287499904632568,-9.239999771118164,2.484999895095825
0.4006679,-0.004635999910533428,-0.9994239807128906,-0.10174799710512161,3.7975001335144043,-9.607500076293945,3.7100000381469727
0.4319248,-0.010979999788105488,-1.0306559801101685,-0.13419999182224274,2.817500114440918,-6.737500190734863,2.6075000762939453
0.45067845,-0.007075999863445759,-1.0057679414749146,-0.12175599485635757,6.28249979019165,-7.804999828338623,4.199999809265137
0.4694321,-0.0012199999764561653,-0.9838079810142517,-0.12419600039720535,6.142499923706055,-5.704999923706055,3.447499990463257
0.500684,0.004635999910533428,-0.9701439738273621,-0.134443998336792,5.005000114440918,-3.9725000858306885,3.0799999237060547
0.5163070000000001,-0.0029279999434947968,-0.9550159573554993,-0.1361519992351532,3.569999933242798,-2.3975000381469727,2.572499990463257
0.53193,-0.012931999750435352,-0.9616039991378784,-0.14054399728775024,0.9800000190734863,-1.1375000476837158,2.3450000286102295
0.5584535500000001,-0.042211998254060745,-0.9989359974861145,-0.13883599638938904,1.8550000190734863,1.2599999904632568,3.4124999046325684
0.5849771,-0.0453839972615242,-1.0006439685821533,-0.13298000395298004,2.240000009536743,1.6974999904632568,2.8350000381469727
0.6162403,-0.044652000069618225,-0.9921039938926697,-0.13078400492668152,3.0274999141693115,2.240000009536743,1.9774999618530273
0.6351872999999999,-0.04636000096797943,-0.9894199967384338,-0.12151199579238892,2.572499990463257,2.5374999046325684,1.2074999809265137
0.6541343,-0.045871999114751816,-0.9982039928436279,-0.11736399680376053,1.6100000143051147,2.450000047683716,0.49000000953674316
0.669641,-0.0378200002014637,-1.0074759721755981,-0.12614800035953522,1.715000033378601,2.012500047683716,0.1574999988079071
0.6852687500000001,-0.040748000144958496,-1.007964015007019,-0.1256600022315979,2.7825000286102295,1.3300000429153442,-0.07000000029802322
0.7008965,-0.04172400012612343,-1.0003999471664429,-0.12224400043487549,3.745000123977661,0.5950000286102295,-0.14000000059604645
0.71651635,-0.039772000163793564,-0.9950319528579712,-0.11858399957418442,3.5,-0.07000000029802322,0.26249998807907104
0.7321362,-0.03440399840474129,-0.986735999584198,-0.1210239976644516,3.7100000381469727,-0.9624999761581421,0.8400000333786011
0.7700601,-0.03635599836707115,-0.9840520024299622,-0.11882799863815308,2.9749999046325684,-1.9075000286102295,1.1725000143051147
0.78575555,-0.0378200002014637,-0.9891759753227234,-0.11370399594306946,1.5399999618530273,-2.1524999141693115,1.2599999904632568
0.801451,-0.03855200111865997,-0.9916160106658936,-0.11858399957418442,1.225000023841858,-1.9600000381469727,1.5575000047683716
0.8326602,-0.037087999284267426,-0.990884006023407,-0.12321999669075012,1.5924999713897705,-1.7675000429153442,1.9075000286102295
0.843539,-0.03684400022029877,-0.9960079789161682,-0.11541199684143066,2.117500066757202,-2.502500057220459,2.012500047683716
0.8544178,-0.033427998423576355,-1.0003999471664429,-0.11834000051021576,3.3424999713897705,-2.257499933242798,1.9600000381469727
0.8856795,-0.034648001194000244,-0.9982039928436279,-0.12004800140857697,4.392499923706055,-2.117500066757202,1.8200000524520874
0.9013103499999999,-0.037331998348236084,-1.0047919750213623,-0.11297199875116348,4.497499942779541,-2.450000047683716,1.627500057220459
0.9169412,-0.03635599836707115,-1.0086959600448608,-0.11321599781513214,4.934999942779541,-3.0450000762939453,1.2949999570846558
0.9356282,-0.03757599741220474,-1.0062559843063354,-0.11467999964952469,6.054999828338623,-2.5374999046325684,1.225000023841858
0.9543152,-0.037087999284267426,-0.9962520003318787,-0.10979999601840973,6.755000114440918,-2.0999999046325684,0.7175000309944153
0.9698255,-0.0302559994161129,-0.9982039928436279,-0.10833600163459778,6.300000190734863,-1.8725000619888306,-0.6299999952316284
0.9854555,-0.024887999519705772,-1.0157719850540161,-0.10613999515771866,6.177500247955322,-1.3125,-1.3300000429153442
1.0010855,-0.02513200044631958,-1.0252879858016968,-0.10247999429702759,7.385000228881836,-0.3149999976158142,-1.4700000286102295
1.032459,-0.031231999397277832,-1.0187000036239624,-0.09808799624443054,9.625,0.07000000029802322,-1.8899999856948853
1.0514152,-0.030499998480081558,-0.9916160106658936,-0.10199199616909027,11.2524995803833,0.33250001072883606,-3.640000104904175
1.0703714,-0.031231999397277832,-0.9969840049743652,-0.09637999534606934,9.135000228881836,1.5399999618530273,-5.302500247955322
1.1016996,-0.05050799995660782,-1.0052800178527832,-0.08735200017690659,7.769999980926514,1.3825000524520874,-6.702499866485596
1.117296,-0.06026799976825714,-0.9969840049743652,-0.08540000021457672,7.525000095367432,1.7324999570846558,-7.157500267028809
1.1328924,-0.03660000115633011,-0.9947879910469055,-0.08857199549674988,6.667500019073486,0.7699999809265137,-6.527500152587891
1.1596913500000001,-0.06709999591112137,-1.0052800178527832,-0.0697840005159378,5.179999828338623,0.5425000190734863,-7.244999885559082
1.1864903,-0.04294399917125702,-1.0182119607925415,-0.09686800092458725,5.582499980926514,0.8400000333786011,-8.452500343322754
1.2177532,-0.007319999858736992,-0.9608719944953918,-0.10809199512004852,12.1274995803833,0.17499999701976776,-5.96750020980835
1.23644605,-0.006587999872863293,-0.929639995098114,-0.10467600077390671,9.082500457763672,-1.0499999523162842,-3.4124999046325684
1.2551389,-0.015371999703347683,-0.9442799687385559,-0.09442799538373947,4.829999923706055,-1.9774999618530273,-0.8924999833106995
1.2707443,-0.024887999519705772,-0.986735999584198,-0.08076399564743042,1.5924999713897705,-1.9600000381469727,0.4025000035762787
1.2863817000000002,-0.011467999778687954,-1.0213840007781982,-0.08125200122594833,1.4175000190734863,-0.6474999785423279,0.5425000190734863
1.3020191,-0.013907999731600285,-1.0245559215545654,-0.08686399459838867,1.9950000047683716,0.8050000071525574,-0.05250000208616257
1.317634,-0.006831999868154526,-0.994055986404419,-0.08979199826717377,4.427500247955322,1.3300000429153442,-0.6825000047683716
1.3332489,-0.02000799961388111,-1.0008879899978638,-0.07832399755716324,3.1500000953674316,1.3650000095367432,-1.2074999809265137
1.3710241,-0.02537599951028824,-1.0011320114135742,-0.08149600028991699,2.870000123977661,1.2074999809265137,-0.9449999928474426
1.3866485000000002,-0.01659199967980385,-0.9845399856567383,-0.07710400223731995,3.0975000858306885,1.0149999856948853,-0.1574999988079071
1.4022729,-0.03171999752521515,-0.9955199956893921,-0.0680759996175766,1.7675000429153442,1.1549999713897705,0.5074999928474426
1.4336483,-0.01756799966096878,-0.9957639575004578,-0.06441599875688553,1.8899999856948853,0.8050000071525574,0.5774999856948853
1.44458735,-0.0056119998916983604,-0.9923479557037354,-0.05807200074195862,1.2949999570846558,0.9975000023841858,-0.017500000074505806
1.4555264,-0.005367999896407127,-0.9845399856567383,-0.062463998794555664,0.699999988079071,2.012500047683716,0.6299999952316284
1.48676875,-0.010003999806940556,-1.0069879293441772,-0.06465999782085419,-1.75,2.450000047683716,0.8400000333786011
1.5180111,-0.010003999806940556,-1.0118680000305176,-0.07466399669647217,-1.4524999856948853,2.6424999237060547,0.7875000238418579
1.5553427,-0.004635999910533428,-1.0001559257507324,-0.08198399841785431,-0.26249998807907104,2.6424999237060547,0.8924999833106995
1.5605911666666668,-0.013419999741017818,-1.0047919750213623,-0.0802759975194931,-0.7350000143051147,2.7300000190734863,0.9100000262260437
1.5658396333333333,-0.017324000597000122,-1.0035719871520996,-0.08344800025224686,-0.17499999701976776,2.765000104904175,0.6825000047683716
1.5710881,-0.012443999759852886,-1.0047919750213623,-0.07637199759483337,0.4375,2.6424999237060547,0.7699999809265137
1.6023083,-0.024643998593091965,-1.0067440271377563,-0.07002799957990646,1.0325000286102295,2.6424999237060547,0.4724999964237213
1.6711059,-0.023180000483989716,-0.9962520003318787,-0.06588000059127808,1.4350000619888306,2.1524999141693115,0.017500000074505806
1.6815278666666666,-0.02757199853658676,-1.0030839443206787,-0.06831999868154526,0.29750001430511475,1.6974999904632568,0.22750000655651093
1.6919498333333334,-0.034648001194000244,-0.9901520013809204,-0.07075999677181244,1.0325000286102295,0.9275000095367432,0.3675000071525574
1.7023718,-0.03537999838590622,-0.9872239828109741,-0.06734399497509003,0.5074999928474426,0.12250000238418579,0.21000000834465027
1.7127877666666667,-0.037331998348236084,-0.9982039928436279,-0.06612399965524673,-1.3125,-0.45500001311302185,0.4375
1.7232037333333334,-0.028303999453783035,-1.0030839443206787,-0.07051599770784378,-1.0850000381469727,-1.4524999856948853,1.0325000286102295
1.7336197,-0.028060000389814377,-1.006011962890625,-0.06905199587345123,-0.8050000071525574,-1.4700000286102295,0.5249999761581421
1.7601385,-0.02537599951028824,-1.006011962890625,-0.07710400223731995,-0.07000000029802322,-1.3300000429153442,0.4724999964237213
1.7866573,-0.02000799961388111,-0.9982039928436279,-0.07344400137662888,0.8224999904632568,-1.347499966621399,0.4724999964237213
1.8178058,-0.0287919994443655,-0.9947879910469055,-0.06929600238800049,0.45500001311302185,-1.0149999856948853,0.22750000655651093
1.8553975,-0.0287919994443655,-0.9996680021286011,-0.07173600047826767,-0.10500000417232513,-0.6650000214576721,0.19249999523162842
1.8710384,-0.023423999547958374,-0.9928359985351562,-0.07002799957990646,0.38499999046325684,-0.5950000286102295,0.5249999761581421
1.8814101666666667,-0.021715998649597168,-0.9869799613952637,-0.06783200055360794,0.24500000476837158,-0.5950000286102295,0.5774999856948853
1.8917819333333332,-0.02122800052165985,-1.0086959600448608,-0.06588000059127808,-1.3125,-0.1574999988079071,0.22750000655651093
1.9021537,-0.01878799870610237,-1.0182119607925415,-0.0651479959487915,-1.0149999856948853,0.8050000071525574,0.07000000029802322
1.9335124,-0.019276000559329987,-1.013819932937622,-0.06490399688482285,-0.6650000214576721,1.2424999475479126,-0.7699999809265137
1.95227475,-0.03171999752521515,-0.9916160106658936,-0.049531999975442886,-0.24500000476837158,0.6825000047683716,-1.0149999856948853
1.9710371,-0.018543999642133713,-0.954039990901947,-0.05245999991893768,-0.3499999940395355,-0.05250000208616257,3.0274999141693115
1.9866655999999998,-0.03171999752521515,-0.9850279688835144,-0.058803997933864594,-4.340000152587891,-0.07000000029802322,4.514999866485596
2.0022941,-0.024399999529123306,-1.0035719871520996,-0.06685599684715271,-5.565000057220459,-0.33250001072883606,3.9024999141693115
2.0335267,-0.020983999595046043,-1.02211594581604,-0.08149600028991699,-5.84499979019165,0.4375,3.867500066757202
2.0511995333333335,-0.018300000578165054,-1.0099159479141235,-0.08906000107526779,-3.9375,1.662500023841858,3.0975000858306885
2.0688723666666666,-0.018543999642133713,-1.0104039907455444,-0.0936959981918335,-5.460000038146973,2.817500114440918,1.8899999856948853
2.0865452,-0.011711999773979187,-1.020651936531067,-0.09345199912786484,-6.195000171661377,3.884999990463257,0.8575000166893005
2.10218715,-0.022204000502824783,-1.0160160064697266,-0.08710800111293793,-3.9200000762939453,4.147500038146973,0.26249998807907104
2.1178291,-0.04318799823522568,-1.0133320093154907,-0.07685999572277069,-1.7324999570846558,2.8350000381469727,-0.2800000011920929
2.1556849,-0.05270399898290634,-1.0035719871520996,-0.06148799881339073,0.5774999856948853,1.1200000047683716,-0.7350000143051147
2.16344185,-0.0558759979903698,-0.9847840070724487,-0.052947998046875,1.9950000047683716,-0.24500000476837158,-0.5600000023841858
2.1711988,-0.05392399802803993,-0.9755119681358337,-0.054655998945236206,1.2424999475479126,-1.399999976158142,-0.1574999988079071
2.2024415,-0.049775999039411545,-0.9933239817619324,-0.05807200074195862,-1.225000023841858,-2.6424999237060547,0.5425000190734863
2.21808985,-0.04196799919009209,-1.0118680000305176,-0.06368400156497955,-2.572499990463257,-3.3424999713897705,0.9275000095367432
2.2337382,-0.030499998480081558,-1.013819932937622,-0.0785679966211319,-2.1875,-3.0799999237060547,0.8400000333786011
2.25277915,-0.02391199953854084,-1.0067440271377563,-0.08344800025224686,-0.875,-3.0274999141693115,0.10500000417232513
2.2718201,-0.024887999519705772,-1.001863956451416,-0.08442399650812149,-0.05250000208616257,-2.677500009536743,-0.49000000953674316
2.303077,-0.022935999557375908,-0.9989359974861145,-0.09442799538373947,0.8050000071525574,-2.2925000190734863,-0.9275000095367432
2.31862905,-0.027327999472618103,-1.0016199350357056,-0.08417999744415283,0.45500001311302185,-1.7675000429153442,-1.225000023841858
2.3341811,-0.030743999406695366,-0.9925919771194458,-0.07368800044059753,0.5074999928474426,-1.399999976158142,-1.2599999904632568
2.3609966,-0.03855200111865997,-0.9862479567527771,-0.07344400137662888,0.05250000208616257,-1.1549999713897705,-1.1725000143051147
2.3878121,-0.042211998254060745,-0.9952759742736816,-0.07222399860620499,-1.6449999809265137,-1.627500057220459,-1.1549999713897705
2.4190528,-0.039772000163793564,-0.9979599714279175,-0.07612799853086472,-2.1700000762939453,-2.327500104904175,-1.3825000524520874
2.43780385,-0.026108000427484512,-0.9903959631919861,-0.07978799939155579,-1.8200000524520874,-3.115000009536743,-1.4524999856948853
2.4565549,-0.029279999434947968,-0.986735999584198,-0.08100800216197968,-2.257499933242798,-2.380000114440918,-0.9100000262260437
2.4721661,-0.03367199748754501,-0.9894199967384338,-0.07661599665880203,-2.922499895095825,-2.799999952316284,-0.24500000476837158
2.4878068,-0.030499998480081558,-0.9911279678344727,-0.07441999763250351,-2.677500009536743,-3.4649999141693115,0.42000001668930054
2.5034475,-0.02513200044631958,-0.9964959621429443,-0.08100800216197968,-2.7300000190734863,-3.692500114440918,0.7875000238418579
2.5346882,-0.020739998668432236,-1.00381600856781,-0.08686399459838867,-2.9049999713897705,-3.3949999809265137,1.0149999856948853
2.55333815,-0.01634800061583519,-1.0033279657363892,-0.0878399983048439,-2.887500047683716,-2.8524999618530273,1.1024999618530273
2.5719881,-0.015615999698638916,-1.0021079778671265,-0.0878399983048439,-3.255000114440918,-2.047499895095825,0.6650000214576721
2.6033018,-0.009759999811649323,-1.006500005722046,-0.0936959981918335,-3.9200000762939453,-0.9449999928474426,0.03500000014901161
2.6209865,-0.008295999839901924,-1.0062559843063354,-0.09686800092458725,-3.884999990463257,0.17499999701976776,-0.26249998807907104
2.6386712,-0.012199999764561653,-0.9935680031776428,-0.10052800178527832,-2.8350000381469727,0.9800000190734863,-0.4375
2.6563559,-0.01903199963271618,-0.9896639585494995,-0.09784399718046188,-2.3450000286102295,1.5924999713897705,-0.4025000035762787
2.6719832500000003,-0.03001200035214424,-1.0099159479141235,-0.10199199616909027,-3.377500057220459,2.3450000286102295,0.10500000417232513
2.6876106,-0.037087999284267426,-1.0157719850540161,-0.10833600163459778,-2.117500066757202,2.2925000190734863,0.4375
2.7032412,-0.0378200002014637,-1.0052800178527832,-0.10345599800348282,-0.10500000417232513,1.5575000047683716,0.3675000071525574
2.7188718,-0.04294399917125702,-1.0043039321899414,-0.0936959981918335,0.49000000953674316,1.1024999618530273,-0.05250000208616257
2.7562923,-0.04001599922776222,-1.0011320114135742,-0.09393999725580215,1.2424999475479126,0.5425000190734863,-0.45500001311302185
2.7640395,-0.04806799814105034,-1.0021079778671265,-0.10028399527072906,1.5924999713897705,-0.12250000238418579,-0.5425000190734863
2.7717867,-0.05660799890756607,-1.0172359943389893,-0.10516399890184402,0.6650000214576721,-1.1375000476837158,-0.6299999952316284
2.8031728,-0.044895999133586884,-1.0084519386291504,-0.09662400186061859,1.9950000047683716,-2.240000009536743,-0.29750001430511475
2.8187965999999998,-0.03660000115633011,-0.9850279688835144,-0.09393999725580215,3.9024999141693115,-2.8524999618530273,0.12250000238418579
2.8344204,-0.0331839993596077,-0.990884006023407,-0.10052800178527832,2.9049999713897705,-3.377500057220459,0.42000001668930054
2.8531955499999997,-0.028547998517751694,-1.0106480121612549,-0.10540799796581268,2.047499895095825,-3.867500066757202,0.5074999928474426
2.8719707,-0.01781199872493744,-1.006500005722046,-0.10589599609375,3.4649999141693115,-4.269999980926514,0.29750001430511475
2.9032218,-0.007807999849319458,-0.9830759763717651,-0.09223199635744095,5.179999828338623,-3.6575000286102295,0.5074999928474426
2.9188418,-0.007075999863445759,-0.9835639595985413,-0.0924759954214096,4.392499923706055,-3.237499952316284,1.2424999475479126
2.9344618,-0.008295999839901924,-1.0006439685821533,-0.1041879951953888,2.7300000190734863,-3.0450000762939453,1.784999966621399
2.9609676499999997,-0.01512799970805645,-1.016503930091858,-0.11077599972486496,2.240000009536743,-3.2200000286102295,1.75
2.9874735,-0.010247999802231789,-1.007964015007019,-0.10540799796581268,3.990000009536743,-4.269999980926514,1.225000023841858
3.0187199,-0.01268799975514412,-0.9864919781684875,-0.10028399527072906,5.057499885559082,-3.009999990463257,1.0674999952316284
3.0377016,-0.016103999689221382,-0.9796599745750427,-0.09467199444770813,4.585000038146973,-2.5199999809265137,0.8924999833106995
3.0566833,-0.015859998762607574,-0.9882000088691711,-0.09272000193595886,3.115000009536743,-2.2925000190734863,0.9975000023841858
3.072304,-0.014151999726891518,-0.9906399846076965,-0.0924759954214096,2.8524999618530273,-2.117500066757202,1.2074999809265137
3.0879247,-0.018543999642133713,-0.9928359985351562,-0.08954799920320511,2.7825000286102295,-2.0824999809265137,1.4874999523162842
3.1035454,-0.025619998574256897,-0.9967399835586548,-0.08735200017690659,2.765000104904175,-2.0824999809265137,1.6974999904632568
3.1347966,-0.03147599846124649,-0.9960079789161682,-0.0849120020866394,3.3424999713897705,-2.2225000858306885,2.1524999141693115
3.1535436,-0.03440399840474129,-0.9979599714279175,-0.08735200017690659,3.7975001335144043,-2.1700000762939453,2.625
3.1722906,-0.04147999733686447,-1.0028399229049683,-0.08344800025224686,3.640000104904175,-2.257499933242798,2.625
3.2035334,-0.0500199981033802,-1.0067440271377563,-0.08051999658346176,3.4649999141693115,-2.4149999618530273,2.047499895095825
3.2191615000000002,-0.04928799718618393,-1.0089399814605713,-0.08540000021457672,3.5350000858306885,-2.484999895095825,1.277500033378601
3.2347896,-0.04440800100564957,-1.0050359964370728,-0.07441999763250351,3.640000104904175,-2.362499952316284,0.3675000071525574
3.25666,-0.04196799919009209,-0.9977160096168518,-0.06905199587345123,3.762500047683716,-1.9249999523162842,-0.612500011920929
3.2722918,-0.04294399917125702,-0.9977160096168518,-0.07075999677181244,3.202500104904175,-1.3825000524520874,-0.7699999809265137
3.2879236,-0.044652000069618225,-0.998691976070404,-0.07539600133895874,2.3975000381469727,-1.4175000190734863,-0.6474999785423279
3.30354095,-0.03806399926543236,-1.001863956451416,-0.06954000145196915,1.5924999713897705,-1.8899999856948853,-0.17499999701976776
3.3191583,-0.04025999829173088,-0.998691976070404,-0.06734399497509003,2.2225000858306885,-1.8025000095367432,0.4025000035762787
3.3565462,-0.0424560010433197,-0.998691976070404,-0.06392800062894821,2.4149999618530273,-1.9950000047683716,0.9275000095367432
3.3643507,-0.047335997223854065,-0.9996680021286011,-0.06392800062894821,2.432500123977661,-2.5374999046325684,1.4700000286102295
3.3721552,-0.045871999114751816,-0.9935680031776428,-0.06319599598646164,2.9749999046325684,-3.1675000190734863,1.5575000047683716
3.4033871,-0.047335997223854065,-0.9916160106658936,-0.06319599598646164,2.502500057220459,-3.552500009536743,1.3650000095367432
3.41897205,-0.05050799995660782,-0.9950319528579712,-0.060999996960163116,1.715000033378601,-3.9024999141693115,1.2949999570846558
3.434557,-0.05441199988126755,-1.0006439685821533,-0.06002400070428848,1.4524999856948853,-4.269999980926514,1.6100000143051147
3.4725544,-0.05148399993777275,-1.0057679414749146,-0.062219999730587006,1.3300000429153442,-4.707499980926514,2.047499895095825
3.48819505,-0.04879999905824661,-1.0094280242919922,-0.06319599598646164,1.8550000190734863,-5.110000133514404,1.9950000047683716
3.5038357,-0.04660400003194809,-0.9996680021286011,-0.06270799785852432,3.132499933242798,-6.300000190734863,1.5924999713897705
3.53040325,-0.047335997223854065,-0.9933239817619324,-0.05807200074195862,3.202500104904175,-6.632500171661377,1.5750000476837158
3.5569708,-0.04806799814105034,-0.9896639585494995,-0.05514399707317352,2.940000057220459,-6.597499847412109,1.5225000381469727
3.57257995,-0.04562800005078316,-0.9947879910469055,-0.054655998945236206,2.065000057220459,-6.684999942779541,1.8899999856948853
3.5881891,-0.04318799823522568,-1.0030839443206787,-0.058559998869895935,1.837499976158142,-6.667500019073486,2.2225000858306885
3.6194577,-0.04025999829173088,-1.0035719871520996,-0.057583998888731,2.2925000190734863,-6.579999923706055,2.0299999713897705
3.6381962,-0.0378200002014637,-0.9964959621429443,-0.056120000779628754,2.7825000286102295,-6.492499828338623,1.715000033378601
3.6569347,-0.04050400108098984,-0.9952759742736816,-0.05953599885106087,2.3450000286102295,-6.159999847412109,1.715000033378601
3.6725464,-0.04196799919009209,-0.9964959621429443,-0.060999996960163116,1.8725000619888306,-5.792500019073486,1.7675000429153442
3.68817535,-0.04294399917125702,-0.9960079789161682,-0.0605119988322258,1.75,-5.617499828338623,1.8725000619888306
3.7038043,-0.046115998178720474,-0.9994239807128906,-0.06124399974942207,1.5924999713897705,-5.442500114440918,2.0299999713897705
3.7350769,-0.04879999905824661,-1.002351999282837,-0.06075599789619446,1.6100000143051147,-5.442500114440918,2.0299999713897705
3.75375925,-0.04660400003194809,-0.9996680021286011,-0.05831599980592728,2.0299999713897705,-5.197500228881836,1.8550000190734863
3.7724416,-0.04660400003194809,-0.9984479546546936,-0.058559998869895935,2.047499895095825,-5.039999961853027,1.8200000524520874
3.8036964,-0.0453839972615242,-0.9994239807128906,-0.057583998888731,2.0299999713897705,-4.672500133514404,1.8025000095367432
3.8193178,-0.04025999829173088,-1.0008879899978638,-0.057583998888731,1.9424999952316284,-4.287499904632568,1.8025000095367432
3.8350291,-0.03952799737453461,-0.9991799592971802,-0.0605119988322258,2.327500104904175,-3.692500114440918,1.7675000429153442
3.8568242,-0.04684799909591675,-1.0025960206985474,-0.06490399688482285,2.450000047683716,-3.4124999046325684,1.9075000286102295
3.87245215,-0.04440800100564957,-1.0040600299835205,-0.058803997933864594,2.677500009536743,-3.132499933242798,2.1524999141693115
3.8880801,-0.04050400108098984,-0.998691976070404,-0.057339999824762344,3.4124999046325684,-2.5899999141693115,2.1875
3.9036858,-0.04050400108098984,-0.9960079789161682,-0.05831599980592728,3.552500009536743,-1.9424999952316284,1.9424999952316284
3.9192915,-0.04196799919009209,-0.9974719882011414,-0.05953599885106087,3.377500057220459,-1.4350000619888306,1.5750000476837158
3.9568181,-0.04294399917125702,-0.9974719882011414,-0.05831599980592728,3.115000009536743,-1.0149999856948853,1.225000023841858
3.9646225,-0.04928799718618393,-0.994055986404419,-0.06539200246334076,2.922499895095825,-0.5774999856948853,0.9449999928474426
3.9724269,-0.057339999824762344,-0.9933239817619324,-0.07344400137662888,2.8350000381469727,-0.612500011920929,0.42000001668930054
4.0036879,-0.058803997933864594,-0.9969840049743652,-0.07490799576044083,2.432500123977661,-1.4700000286102295,-0.10500000417232513
4.0193142,-0.054899998009204865,-1.0006439685821533,-0.06709999591112137,2.694999933242798,-2.1700000762939453,-0.3499999940395355
4.0349405,-0.0558759979903698,-1.0052800178527832,-0.06270799785852432,2.7825000286102295,-1.9600000381469727,0.7524999976158142
4.06934455,-0.06441599875688553,-1.0052800178527832,-0.06490399688482285,3.5350000858306885,-2.1875,2.2049999237060547
4.1037486,-0.07710400223731995,-0.9889319539070129,-0.07710400223731995,5.074999809265137,-2.5374999046325684,3.0450000762939453
4.1193004,-0.12126799672842026,-0.9494040012359619,-0.08588799834251404,5.215000152587891,-4.497499942779541,4.147500038146973
4.134973,-0.1256600022315979,-0.9506239891052246,-0.058559998869895935,3.0799999237060547,-6.807499885559082,2.940000057220459
4.1568739,-0.12931999564170837,-0.9620919823646545,-0.04367600008845329,1.8025000095367432,-8.977499961853027,0.29750001430511475
4.17248735,-0.10858000069856644,-0.9860039949417114,-0.04806799814105034,-0.07000000029802322,-8.4350004196167,-1.8200000524520874
4.1881008,-0.08661999553442001,-1.020651936531067,-0.016103999689221382,-1.9600000381469727,-8.085000038146973,-1.8550000190734863
4.2193489,-0.07661599665880203,-1.047003984451294,-0.0009759999811649323,-3.6575000286102295,-6.317500114440918,-0.42000001668930054
4.2380321,-0.05709599703550339,-1.0787240266799927,-0.03562399744987488,-7.612500190734863,-4.09499979019165,2.3450000286102295
4.2567153,-0.07149200141429901,-1.097999930381775,-0.031231999397277832,-7.699999809265137,-3.8324999809265137,4.53249979019165
4.2724771,-0.0983319953083992,-1.0674999952316284,-0.010247999802231789,-2.0299999713897705,-3.9375,6.702499866485596
4.2880955499999995,-0.11004399508237839,-1.016503930091858,-0.009271999821066856,3.5,-3.640000104904175,8.574999809265137
4.303714,-0.10467600077390671,-0.9943000078201294,0.0017079999670386314,3.115000009536743,-3.202500104904175,9.817500114440918
4.3349781,-0.09174399822950363,-0.9925919771194458,0.009759999811649323,3.5,-1.6449999809265137,9.467499732971191
4.3537203,-0.10345599800348282,-0.9828319549560547,0.00878399983048439,5.162499904632568,0.8924999833106995,8.3125
4.3724625,-0.11687599867582321,-0.9779520034790039,0.015859998762607574,4.934999942779541,2.4674999713897705,7.945000171661377
4.403712,-0.13541999459266663,-0.9735599756240845,0.01878799870610237,3.2899999618530273,3.4649999141693115,7.927500247955322
4.4192564,-0.1500599980354309,-0.9684360027313232,0.022447999566793442,1.5225000381469727,4.059999942779541,7.612500190734863
4.4349611,-0.15689200162887573,-0.9662399888038635,0.024399999529123306,0.6825000047683716,3.4124999046325684,6.545000076293945
4.4567604,-0.14810799062252045,-0.9594079852104187,0.03147599846124649,1.3825000524520874,2.694999933242798,4.340000152587891
4.4723711999999995,-0.14103199541568756,-0.9430599808692932,0.027327999472618103,2.432500123977661,2.257499933242798,1.8025000095367432
4.487982,-0.13859200477600098,-0.9508680105209351,0.020983999595046043,0.9449999928474426,1.715000033378601,-0.26249998807907104
4.5192506,-0.1285879909992218,-0.9982039928436279,0.022447999566793442,-1.7324999570846558,0.6825000047683716,-1.5750000476837158
4.53819,-0.13005200028419495,-1.017967939376831,-0.006831999868154526,-1.0149999856948853,-0.22750000655651093,-2.572499990463257
4.5571294,-0.14005599915981293,-1.0491999387741089,-0.06856399774551392,-2.2750000953674316,-1.9249999523162842,-2.240000009536743
4.5726328,-0.11101999878883362,-1.111907958984375,-0.06905199587345123,-4.602499961853027,-4.550000190734863,-0.6474999785423279
4.5883148,-0.05953599885106087,-1.1255719661712646,-0.01659199967980385,2.327500104904175,-3.569999933242798,1.9774999618530273
4.6039968,-0.07466399669647217,-0.9628239870071411,-0.03147599846124649,17.09749984741211,-0.9100000262260437,5.460000038146973
4.6196282,-0.07197999954223633,-0.9882000088691711,-0.02659599855542183,14.40250015258789,-0.6299999952316284,6.002500057220459
4.6352596,-0.07612799853086472,-0.9506239891052246,-0.05685199797153473,11.287500381469727,-0.4025000035762787,3.9024999141693115
4.673321,-0.10467600077390671,-0.8984079957008362,-0.04928799718618393,10.552499771118164,2.117500066757202,-0.14000000059604645
4.6889543499999995,-0.11882799863815308,-0.9357399940490723,-0.019763998687267303,5.932499885559082,2.2925000190734863,-1.4700000286102295
4.7045877,-0.13102799654006958,-1.0140639543533325,0.0026839999482035637,2.047499895095825,4.934999942779541,-2.625
4.7201755,-0.1285879909992218,-1.0260199308395386,-0.008295999839901924,2.309999942779541,5.215000152587891,-1.9950000047683716
4.7575998,-0.1227319985628128,-1.014307975769043,0.007807999849319458,1.8725000619888306,5.599999904632568,-0.5600000023841858
4.7888544,-0.11467999964952469,-0.9393999576568604,-0.0017079999670386314,1.3825000524520874,2.1875,-1.1725000143051147
4.8044860499999995,-0.10028399527072906,-1.0157719850540161,-0.004879999905824661,-2.9049999713897705,0.6299999952316284,-1.6974999904632568
4.8201177,-0.08808399736881256,-1.0670119524002075,-0.008539999835193157,3.2725000381469727,-0.3675000071525574,-2.2925000190734863
4.8575068,-0.09345199912786484,-0.9603840112686157,0.00024399999529123306,15.522500038146973,1.0850000381469727,-4.09499979019165
4.865314850000001,-0.08906000107526779,-0.9694119691848755,-0.0026839999482035637,3.202500104904175,1.3650000095367432,-2.572499990463257
4.8731229,-0.09027999639511108,-1.0082080364227295,-0.008539999835193157,-0.4375,1.8200000524520874,-2.0824999809265137
4.9043813,-0.09223199635744095,-1.0250439643859863,-0.013419999741017818,3.5875000953674316,2.2750000953674316,-1.8899999856948853
4.9200058,-0.10223599523305893,-1.0052800178527832,-0.0012199999764561653,8.645000457763672,3.0274999141693115,-2.362499952316284
4.9356303,-0.10101599991321564,-1.0050359964370728,0.00878399983048439,10.430000305175781,3.255000114440918,-2.572499990463257
4.95451785,-0.09955199807882309,-0.9960079789161682,0.012443999759852886,10.02750015258789,3.3600001335144043,-1.5750000476837158
4.9734054,-0.09418399631977081,-0.9789279699325562,0.02391199953854084,8.417500495910645,2.555000066757202,-1.2949999570846558
4.9890759,-0.09149999916553497,-0.9794159531593323,0.021959999576210976,4.637499809265137,2.6424999237060547,-0.8924999833106995
5.0046820499999995,-0.07807999849319458,-1.0057679414749146,0.023180000483989716,3.3600001335144043,3.3600001335144043,-0.612500011920929
5.0202882,-0.06831999868154526,-1.0011320114135742,0.025619998574256897,4.147500038146973,4.304999828338623,-0.8050000071525574
5.0578225,-0.07441999763250351,-1.013819932937622,0.015615999698638916,2.922499895095825,5.862500190734863,-0.8400000333786011
5.0734289,-0.0878399983048439,-1.0028399229049683,0.02025200054049492,5.40749979019165,8.154999732971191,-1.3650000095367432
5.0890353,-0.09442799538373947,-0.9891759753227234,0.031231999397277832,4.392499923706055,9.082500457763672,-2.694999933242798
5.1203115,-0.09930799901485443,-1.009671926498413,0.02659599855542183,2.0824999809265137,10.114999771118164,-3.7274999618530273
5.13931265,-0.1210239976644516,-0.9982039928436279,0.025863999500870705,4.952499866485596,10.517499923706055,-4.252500057220459
5.1583138,-0.12297599762678146,-0.9679479598999023,0.02122800052165985,5.6875,10.114999771118164,-3.762500047683716
5.1739352,-0.12370799481868744,-0.9669719934463501,0.01439599972218275,3.132499933242798,7.682499885559082,-1.75
5.189560999999999,-0.12614800035953522,-0.9747799634933472,0.01878799870610237,-0.33250001072883606,4.917500019073486,0.26249998807907104
5.2051868,-0.12468399852514267,-1.0721359252929688,0.009271999821066856,0.5425000190734863,4.235000133514404,-0.26249998807907104
5.22081695,-0.0983319953083992,-1.0025960206985474,0.040991999208927155,15.364999771118164,3.5875000953674316,-1.715000033378601
5.2364471,-0.1029679998755455,-0.8986519575119019,0.02000799961388111,6.894999980926514,-0.21000000834465027,-0.10500000417232513
5.2737195,-0.1012599989771843,-1.0067440271377563,0.031231999397277832,-10.202500343322754,-1.2424999475479126,1.5225000381469727
5.289341,-0.09784399718046188,-1.1377719640731812,-0.0019519999623298645,6.090000152587891,2.6600000858306885,-1.3125
5.3051214,-0.10394399613142014,-0.9462319612503052,0.08100800216197968,35.13999938964844,3.0274999141693115,-4.007500171661377
5.3207164,-0.08442399650812149,-0.8930400013923645,0.08369199931621552,17.395000457763672,-2.870000123977661,-1.6800000667572021
5.3581524,-0.07393199950456619,-0.9450119733810425,0.05245999991893768,-10.02750015258789,-5.144999980926514,1.5049999952316284
5.3893355,-0.0663679987192154,-0.9811239838600159,0.029279999434947968,-20.49250030517578,-3.307500123977661,0.9800000190734863
5.4205186,-0.07246799767017365,-1.0760400295257568,0.019519999623298645,-24.079999923706055,-2.2225000858306885,1.4175000190734863
5.43932855,-0.08417999744415283,-1.1316720247268677,0.04660400003194809,16.170000076293945,-1.0149999856948853,-2.765000104904175
5.4581385,-0.08661999553442001,-0.9637999534606934,0.034648001194000244,34.5625,-0.9624999761581421,-2.2049999237060547
5.4659461,-0.09223199635744095,-0.9557479619979858,0.08369199931621552,27.755001068115234,1.2949999570846558,-2.7300000190734863
5.4737537,-0.08735200017690659,-1.1477760076522827,0.09759999811649323,16.309999465942383,-2.887500047683716,-0.6474999785423279
5.5050118,-0.07930000126361847,-1.664080023765564,0.09296400099992752,82.75749969482422,-30.135000228881836,22.5575008392334
5.5206361,-0.313539981842041,-0.7005239725112915,0.14127600193023682,149.94000244140625,-16.642499923706055,-29.610000610351562
5.5362604,0.11687599867582321,-0.23301999270915985,0.15640400350093842,156.90499877929688,-65.06500244140625,-244.40499877929688
5.5892508,-0.11077599972486496,-0.3689279854297638,0.2954840064048767,-129.14999389648438,-27.142499923706055,-5.670000076293945
5.5971272,0.06124399974942207,-1.0831159353256226,-0.06734399497509003,-167.7899932861328,-6.632500171661377,109.16500091552734
5.6050036,-0.21959999203681946,-1.7033640146255493,0.22789599001407623,-86.1875,-21.489999771118164,124.89749908447266
5.6206126,-0.11663199961185455,-0.8361879587173462,-0.02635199949145317,-31.3075008392334,18.357500076293945,-7.892499923706055
5.63926015,-0.07295599579811096,-1.0045479536056519,0.019763998687267303,-36.92499923706055,-6.965000152587891,4.900000095367432
5.6579077,-0.06270799785852432,-1.0613999366760254,0.019276000559329987,-34.29999923706055,-0.7875000238418579,3.307500123977661
5.67360375,-0.03391600027680397,-1.0889719724655151,0.0348920002579689,-14.017499923706055,-5.949999809265137,2.1700000762939453
5.6892998,-0.0017079999670386314,-1.0843359231948853,0.047091998159885406,7.735000133514404,-8.1899995803833,0.5600000023841858
5.7205443,-0.0058559998869895935,-1.0611560344696045,0.06539200246334076,19.950000762939453,-10.920000076293945,-0.8924999833106995
5.73923095,-0.01659199967980385,-0.981611967086792,0.06612399965524673,17.02750015258789,-8.732500076293945,-3.430000066757202
5.7579176,-0.020983999595046043,-0.9681919813156128,0.021959999576210976,8.417500495910645,-2.380000114440918,-2.3450000286102295
5.7736466,-0.03903999924659729,-0.9318360090255737,-0.023180000483989716,1.4350000619888306,1.7675000429153442,0.19249999523162842
5.7944916,-0.06783200055360794,-0.9925919771194458,0.044895999133586884,-1.1375000476837158,3.7274999618530273,0.9975000023841858
5.8153366,-0.06563600152730942,-0.9996680021286011,0.05782799795269966,-3.867500066757202,-0.05250000208616257,0.8224999904632568
5.8361816,-0.060999996960163116,-1.009671926498413,0.02635199949145317,-2.257499933242798,-1.4175000190734863,0.6299999952316284
5.8549485,-0.07710400223731995,-0.9677039980888367,-0.02781599946320057,-0.9800000190734863,5.775000095367432,0.8050000071525574
5.8737154,-0.05685199797153473,-0.9301279783248901,-0.04391999915242195,-7.070000171661377,15.260000228881836,1.2074999809265137
5.8892043,-0.054655998945236206,-0.9799039959907532,0.09223199635744095,-8.732500076293945,21.612499237060547,0.42000001668930054
5.904973,-0.06026799976825714,-1.089460015296936,0.04294399917125702,-21.385000228881836,4.760000228881836,-1.1024999618530273
5.9205413,-0.06783200055360794,-1.0191879272460938,0.026108000427484512,-14.210000038146973,-1.0674999952316284,-2.1875
5.9579933,-0.06075599789619446,-1.0125999450683594,0.01781199872493744,-29.540000915527344,-16.15250015258789,9.362500190734863
6.03160765,-0.00951599981635809,-1.0931199789047241,0.09613599628210068,-35.875,-51.65999984741211,32.27000045776367
6.105222,0.18373200297355652,-1.2700200080871582,0.02757199853658676,-44.22249984741211,-88.19999694824219,68.11000061035156
6.115689433333333,-0.1373720020055771,-1.0218719244003296,-0.12175599485635757,-36.505001068115234,-62.73749923706055,0.19249999523162842
6.126156866666667,-0.07685999572277069,-0.8315519690513611,-0.060999996960163116,-9.029999732971191,-51.29249954223633,-29.71500015258789
6.1366243,-0.17080000042915344,-0.827892005443573,0.024399999529123306,-33.38999938964844,-56.73500061035156,-32.98749923706055
6.1631552,-0.17323999106884003,-0.9713639616966248,-0.07807999849319458,-46.025001525878906,-62.5625,-10.079999923706055
6.1896861,-0.29865598678588867,-1.0372439622879028,-0.16250400245189667,0.8224999904632568,-22.662500381469727,6.877500057220459
6.205452,-0.49434399604797363,-0.9006040096282959,-0.08686399459838867,28.21000099182129,8.6274995803833,-8.242500305175781
6.2231443,-0.38649600744247437,-0.892795979976654,-0.03294000029563904,20.33500099182129,27.5625,-20.09000015258789
6.2408366,0.009759999811649323,-1.0057679414749146,-0.02391199953854084,10.342499732971191,-28.717500686645508,-1.5924999713897705
6.2585289,-0.1651879996061325,-0.9276880025863647,0.010735999792814255,5.53000020980835,92.52249908447266,54.880001068115234
6.268949,-0.18592800199985504,-1.1241079568862915,0.11663199961185455,8.609999656677246,145.77499389648438,119.01750183105469
6.2793691,-0.07930000126361847,-0.8369199633598328,0.16079600155353546,29.399999618530273,126.06999969482422,82.38999938964844
6.2897892,-0.1298079937696457,-0.9096319675445557,0.004147999919950962,-5.792500019073486,100.20500183105469,42.157501220703125
6.300212466666667,-0.12077999860048294,-0.8993839621543884,0.1268799901008606,-9.835000038146973,49.26250076293945,3.1675000190734863
6.310635733333333,-0.2269199937582016,-1.1209360361099243,0.16372399032115936,-33.75749969482422,6.929999828338623,-4.375
6.321059,-0.11980399489402771,-0.9167079925537109,0.04660400003194809,-19.424999237060547,-42.85750198364258,-9.625
6.3335612,-0.29572799801826477,-1.197551965713501,-0.21374399960041046,-48.807498931884766,17.780000686645508,-1.1024999618530273
6.3460634,-0.14151999354362488,-1.2009680271148682,-0.10321199893951416,-17.657499313354492,7.402500152587891,-5.599999904632568
6.3585656,-0.20959599316120148,-0.962336003780365,-0.0983319953083992,4.445000171661377,15.925000190734863,-4.130000114440918
6.3742251,-0.20617999136447906,-0.9476959705352783,-0.12590399384498596,-14.262499809265137,35.01750183105469,2.1875
6.3898333,-0.15152399241924286,-0.9855159521102905,-0.05245999991893768,-11.199999809265137,36.45249938964844,4.602499961853027
6.4054415,-0.22374799847602844,-0.9430599808692932,-0.039772000163793564,8.102499961853027,20.842500686645508,6.142499923706055
6.4367001,-0.183243989944458,-1.0001559257507324,-0.0056119998916983604,28.665000915527344,12.390000343322754,0.14000000059604645
6.4740746,-0.14322799444198608,-1.014307975769043,-0.049775999039411545,36.68000030517578,18.34000015258789,-3.7100000381469727
6.479279833333333,-0.11980399489402771,-1.073599934577942,-0.06368400156497955,45.342498779296875,22.52250099182129,-9.135000228881836
6.484485066666667,-0.12126799672842026,-0.9694119691848755,-0.02513200044631958,70.85749816894531,20.96500015258789,-11.654999732971191
6.4896903,-0.20935200154781342,-1.0257760286331177,0.04391999915242195,66.88500213623047,12.774999618530273,-17.482500076293945
6.521055,-0.15493999421596527,-1.0696959495544434,0.0007319999858736992,67.35749816894531,11.182499885559082,-15.977499961853027
6.5583475,-0.2210640013217926,-1.1909639835357666,0.03147599846124649,87.6050033569336,1.4524999856948853,-30.485000610351562
6.591849266666666,-0.1420079916715622,-0.9408639669418335,0.15274399518966675,129.4824981689453,-21.559999465942383,-42.4375
6.625351033333334,-0.14566799998283386,-0.8208159804344177,0.07588399946689606,136.88499450683594,-12.162500381469727,-36.505001068115234
6.6588528,-0.15640400350093842,-0.7395640015602112,0.10394399613142014,120.03250122070312,2.4149999618530273,-22.399999618530273
6.6640675,-0.17958399653434753,-0.7861679792404175,0.20471599698066711,85.47000122070312,7.945000171661377,-7.349999904632568
6.6692822000000005,-0.11834000051021576,-1.0587159395217896,0.19861599802970886,36.71500015258789,6.667500019073486,-1.8025000095367432
6.6744969,-0.09345199912786484,-0.9228079915046692,0.22203999757766724,5.267499923706055,16.537500381469727,-2.677500009536743
6.7057295,-0.09759999811649323,-0.9191479682922363,0.2776719927787781,-34.282501220703125,16.922500610351562,8.487500190734863
6.7369885,-0.10638399422168732,-0.9677039980888367,0.18397599458694458,-11.357500076293945,9.432499885559082,6.335000038146973
6.7586906,-0.02635199949145317,-0.98990797996521,0.19764000177383423,23.082500457763672,0.22750000655651093,-3.237499952316284
6.77428355,-0.021715998649597168,-1.0116239786148071,0.27791598439216614,19.372499465942383,0.8924999833106995,-8.015000343322754
6.7898765,-0.0832040011882782,-1.0145519971847534,0.2327760010957718,23.712499618530273,-2.432500123977661,-14.9975004196167
6.8056121,-0.08369199931621552,-1.0177240371704102,0.27132800221443176,54.07500076293945,-1.6800000667572021,-43.73250198364258
6.833698266666667,-0.031964000314474106,-0.9964959621429443,0.2269199937582016,76.24749755859375,-2.2225000858306885,-40.23250198364258
6.861784433333334,-0.12492799758911133,-1.0328519344329834,0.3130519986152649,92.43499755859375,-3.9024999141693115,-28.752500534057617
6.8898706,-0.07344400137662888,-0.9952759742736816,0.31768798828125,153.7550048828125,-17.727500915527344,-38.48250198364258
6.9127901,-0.017079999670386314,-1.0540800094604492,0.31793197989463806,196.0175018310547,-20.737499237060547,-55.125
6.9357096,-0.02781599946320057,-0.9586759805679321,0.4660399854183197,244.5449981689453,-40.7400016784668,-63.70000076293945
6.9586291,0.12663599848747253,-0.639523983001709,0.4106519818305969,226.92250061035156,-37.099998474121094,-60.83000183105469
6.974292966666666,0.11443600058555603,-0.6666079759597778,0.4455440044403076,122.5875015258789,-8.3125,-28.787500381469727
6.989956833333333,0.07490799576044083,-0.7620120048522949,0.5670560002326965,32.4275016784668,8.942500114440918,-4.777500152587891
7.0056207,0.024156000465154648,-0.802515983581543,0.6585559844970703,8.592499732971191,14.4375,-0.1574999988079071
7.02124155,0.0029279999434947968,-0.745419979095459,0.5941399931907654,19.915000915527344,3.1675000190734863,-3.815000057220459
7.0368624,0.054655998945236206,-0.4287079870700836,0.5960919857025146,-16.309999465942383,11.795000076293945,7.175000190734863
7.0479753,0.026108000427484512,-1.3659119606018066,0.5807200074195862,-59.23749923706055,49.73500061035156,-0.9975000023841858
7.0590882,0.06148799881339073,-1.0550559759140015,0.6773439645767212,13.440000534057617,5.84499979019165,-22.837499618530273
7.0748487,0.1076039969921112,-0.7393199801445007,0.6097559928894043,29.295000076293945,2.572499990463257,-30.082500457763672
7.0904446,0.09662400186061859,-0.7459079623222351,0.6463559865951538,1.3825000524520874,4.847499847412109,-15.645000457763672
7.113341366666666,0.11736399680376053,-0.6939359903335571,0.6336680054664612,-9.765000343322754,2.6075000762939453,-23.905000686645508
7.136238133333333,0.06539200246334076,-0.5453400015830994,0.6214680075645447,-81.00749969482422,14.244999885559082,-11.619999885559082
7.1591349,0.09589199721813202,-0.5321639776229858,0.4306599795818329,-156.6074981689453,24.0625,15.522500038146973
7.1903899,-0.016103999689221382,-0.7834839820861816,0.19397999346256256,-246.2425079345703,68.96749877929688,21.06999969482422
7.2216442,-0.06563600152730942,-1.0357799530029297,0.4272439777851105,-243.30250549316406,69.68499755859375,26.739999771118164
7.2403144,-0.020739998668432236,-1.2849040031433105,0.4577440023422241,-154.54249572753906,28.454999923706055,11.270000457763672
7.2589846,0.03171999752521515,-1.2756320238113403,0.5441200137138367,-64.24250030517578,-18.059999465942383,-12.8100004196167
7.2668073500000006,0.12590399384498596,-1.1560720205307007,0.43846797943115234,-2.8524999618530273,-68.94999694824219,-30.572500228881836
7.2746301,0.17592400312423706,-1.2334200143814087,0.3455039858818054,44.52000045776367,-120.95999908447266,-53.23500061035156
7.3057699,0.2683999836444855,-0.742247998714447,0.5338720083236694,87.67500305175781,-154.4550018310547,-79.46749877929688
7.32145595,0.22594399750232697,-0.9069479703903198,0.0983319953083992,72.0999984741211,-156.02999877929688,-44.79999923706055
7.337142,0.015859998762607574,-0.6451359987258911,0.23887600004673004,-51.415000915527344,-107.20500183105469,-13.737500190734863
7.354970933333333,-0.2949959933757782,-0.5531479716300964,-0.09467199444770813,-57.61000061035156,14.612500190734863,70.20999908447266
7.372799866666667,-0.13005200028419495,-1.0335839986801147,0.2827959954738617,-90.72000122070312,100.5374984741211,95.98750305175781
7.3906288,0.026108000427484512,-1.0062559843063354,0.33013200759887695,-97.8949966430664,40.845001220703125,41.93000030517578
7.4218092,0.4323679804801941,-0.9872239828109741,0.24643999338150024,-53.88249969482422,23.135000228881836,0.42000001668930054
7.440602800000001,0.004391999915242195,-1.2551360130310059,0.2681559920310974,-65.76499938964844,48.66749954223633,-10.569999694824219
7.4593964,0.10638399422168732,-1.115567922592163,0.1849519908428192,15.662500381469727,44.64250183105469,-23.975000381469727
7.4802290000000005,0.010247999802231789,-1.0784800052642822,0.16787199676036835,91.03500366210938,-12.302499771118164,-75.75749969482422
7.5010616,0.14127600193023682,-0.6268360018730164,0.40943199396133423,142.94000244140625,-63.70000076293945,-13.842499732971191
7.5218942,0.006099999882280827,-0.7659159898757935,0.1798280030488968,3.640000104904175,-75.63500213623047,-26.915000915527344
7.54063115,-0.04367600008845329,-0.6195160150527954,0.6326919794082642,-36.627498626708984,10.132499694824219,59.60499954223633
7.5593681,-0.1512800008058548,-0.7908039689064026,0.20642399787902832,-239.90750122070312,104.26499938964844,53.900001525878906
7.5749807,0.5646159648895264,-1.5342719554901123,-0.22643199563026428,-163.02999877929688,-30.415000915527344,80.76249694824219
7.59061405,0.12883199751377106,-1.2180479764938354,0.07710400223731995,-21.735000610351562,21.50749969482422,43.557498931884766
7.6062474,0.008051999844610691,-1.103611946105957,0.18129199743270874,6.40500020980835,9.22249984741211,0.5249999761581421
7.6375072,-0.0756400004029274,-0.8371639847755432,0.24253599345684052,18.042499542236328,14.332500457763672,1.0325000286102295
7.721709,-0.1290760040283203,-0.8276479840278625,0.24351198971271515,-2.240000009536743,18.549999237060547,3.132499933242798
7.734235666666667,0.04684799909591675,-1.0379760265350342,0.1995919942855835,-24.517499923706055,29.767499923706055,16.15250015258789
7.746762333333333,-0.03684400022029877,-1.1494839191436768,0.02903600037097931,-1.8025000095367432,38.90250015258789,64.61000061035156
7.759289,-0.038307998329401016,-0.9442799687385559,0.15323199331760406,21.227500915527344,37.974998474121094,60.654998779296875
7.77490605,-0.0017079999670386314,-0.8932839632034302,0.1483519971370697,0.21000000834465027,44.65999984741211,52.46500015258789
7.7905231,-0.15689200162887573,-0.9552599787712097,0.12224400043487549,-26.302499771118164,10.885000228881836,34.6150016784668
7.8186537,-0.13834799826145172,-0.981611967086792,0.18080399930477142,-43.627498626708984,-43.38249969482422,-1.3125
7.8467843,-0.07905599474906921,-0.9659959673881531,0.18177999556064606,-61.407501220703125,-80.69249725341797,-51.099998474121094
7.8749149,0.07710400223731995,-1.1150799989700317,0.08564399927854538,-41.49250030517578,-77.9625015258789,-73.46500396728516
7.885332033333333,-0.1525000035762787,-1.1241079568862915,0.10491999983787537,-4.987500190734863,-14.892499923706055,-82.51249694824219
7.895749166666667,0.26669198274612427,-1.089460015296936,0.26742398738861084,-8.137499809265137,-29.697500228881836,-26.862499237060547
7.9061663,0.18348799645900726,-1.238055944442749,0.024156000465154648,16.852500915527344,8.574999809265137,37.1349983215332
7.9217931,-0.3164680004119873,-0.8827919960021973,0.14176400005817413,97.6500015258789,60.025001525878906,31.850000381469727
7.9374199,-0.11980399489402771,-0.7820199728012085,0.057339999824762344,73.44750213623047,80.01000213623047,-44.5724983215332
7.9590709,-0.16738399863243103,-0.9537959694862366,0.10199199616909027,63.787498474121094,35.682498931884766,-22.364999771118164
7.974838,-0.00951599981635809,-0.8884040117263794,0.28645598888397217,43.084999084472656,3.8499999046325684,2.8524999618530273
7.9904435,0.007563999854028225,-0.9196360111236572,0.2776719927787781,14.647500038146973,8.067500114440918,13.859999656677246
8.006072549999999,0.16665199398994446,-0.8293559551239014,0.1756799966096878,-34.002498626708984,-15.225000381469727,9.887499809265137
8.0217016,0.05026400089263916,-0.9821000099182129,0.21496400237083435,-40.18000030517578,-17.237499237060547,-2.4149999618530273
8.0403339,-0.13663999736309052,-1.1328920125961304,0.1844639927148819,-18.795000076293945,6.090000152587891,0.49000000953674316
8.0589662,-0.234484001994133,-1.1228879690170288,0.23545999825000763,0.699999988079071,9.082500457763672,-2.765000104904175
8.107932133333334,-0.24180398881435394,-0.9938119649887085,0.27547600865364075,16.39750099182129,10.657500267028809,-4.65500020980835
8.156898066666667,-0.24229200184345245,-1.007964015007019,0.23985199630260468,14.350000381469727,7.034999847412109,2.7825000286102295
8.205864,-0.13298000395298004,-0.8561959862709045,0.18763600289821625,7.192500114440918,-13.15999984741211,15.855000495910645
8.2371037,-0.019763998687267303,-0.8945040106773376,0.13127200305461884,-22.81999969482422,-39.88249969482422,5.949999809265137
8.254738566666667,0.11882799863815308,-0.9511119723320007,0.16250400245189667,-45.342498779296875,-54.564998626708984,8.27750015258789
8.272373433333334,0.06539200246334076,-0.822767972946167,0.12590399384498596,-59.150001525878906,-47.86249923706055,22.81999969482422
8.2900083,0.19739599525928497,-1.0716480016708374,0.12590399384498596,-60.567501068115234,-82.05750274658203,25.1299991607666
8.3057065,-0.11370399594306946,-1.0452959537506104,0.13346800208091736,-41.5625,-42.087501525878906,47.127498626708984
8.3214047,0.0302559994161129,-1.0562759637832642,0.17202000319957733,-37.55500030517578,-64.01499938964844,89.96749877929688
8.3442808,-0.08979199826717377,-0.7710399627685547,0.0802759975194931,-11.164999961853027,-40.127498626708984,127.2249984741211
8.367156900000001,-0.32427600026130676,-0.7132120132446289,0.07368800044059753,-75.37249755859375,16.625,152.65249633789062
8.390033,-0.03245199844241142,-1.4376479387283325,-0.03440399840474129,-128.74749755859375,38.32500076293945,33.845001220703125
8.42432975,-0.16421200335025787,-1.125815987586975,-0.006587999872863293,-74.375,-5.512499809265137,2.2225000858306885
8.4586265,-0.47555598616600037,-0.8112999796867371,0.12931999564170837,-46.060001373291016,0.6650000214576721,16.485000610351562
8.466436850000001,-0.10931199789047241,-1.0789679288864136,-0.06709999591112137,-30.030000686645508,-51.69499969482422,27.037500381469727
8.4742472,-0.27962398529052734,-0.9342759847640991,0.04806799814105034,16.485000610351562,-90.5625,-2.8350000381469727
8.484674133333334,-0.12126799672842026,-1.0662800073623657,0.07173600047826767,-15.470000267028809,-124.86250305175781,-19.145000457763672
8.495101066666667,-0.09198799729347229,-1.0491999387741089,0.18226799368858337,-48.125,-103.80999755859375,1.9249999523162842
8.505528,-0.30329200625419617,-1.0457839965820312,0.35867998003959656,-33.61750030517578,-116.05999755859375,-16.502500534057617
8.5159394,-0.2827959954738617,-0.8478999733924866,0.3408679962158203,23.39750099182129,-202.24749755859375,-18.84749984741211
8.5263508,-0.26669198274612427,-1.0233359336853027,0.19422399997711182,22.610000610351562,-257.25,-28.64750099182129
8.5367622,-0.2698639929294586,-1.1397240161895752,0.19617599248886108,-17.850000381469727,-286.0199890136719,-42.80500030517578
8.5589252,-0.1041879951953888,-1.2131680250167847,0.3125639855861664,-67.39250183105469,-313.0050048828125,-64.47000122070312
8.56678605,-0.4445679783821106,-0.6336680054664612,0.11248400062322617,-44.834999084472656,-329.875,-44.939998626708984
8.5746469,-0.2776719927787781,-0.7954399585723877,-0.20276398956775665,33.6875,-333.98748779296875,-28.524999618530273
8.582429399999999,-0.34013599157333374,-0.8691279888153076,-0.7410280108451843,-28.892499923706055,-290.0975036621094,5.617499828338623
8.5902119,-0.006587999872863293,-0.9777079820632935,-0.1705559939146042,41.790000915527344,-243.19749450683594,17.395000457763672
8.6214142,-0.26327598094940186,-1.116055965423584,0.14932799339294434,-82.52999877929688,-226.8350067138672,32.724998474121094
8.6401707,-0.16738399863243103,-0.925491988658905,-0.028303999453783035,-69.125,-213.18499755859375,12.337499618530273
8.6589272,-0.04391999915242195,-1.0306559801101685,0.23131199181079865,-39.375,-204.20750427246094,16.100000381469727
8.6901617,0.11248400062322617,-1.050663948059082,0.1647000014781952,-35.0,-200.1475067138672,12.197500228881836
8.713046233333333,-0.059779997915029526,-1.0338280200958252,-0.03855200111865997,-31.114999771118164,-195.1425018310547,-7.980000019073486
8.735930766666668,-0.509227991104126,-1.0333399772644043,-0.39991599321365356,3.255000114440918,-176.22500610351562,-35.84000015258789
8.7588153,-0.40455198287963867,-0.9833199977874756,-0.49068400263786316,33.442501068115234,-129.34249877929688,-38.622501373291016
8.76662305,-0.18080399930477142,-0.8898679614067078,-0.5641279816627502,25.30500030517578,-55.02000045776367,-20.33500099182129
8.7744308,0.13078400492668152,-0.9647759795188904,-0.5450959801673889,-21.2450008392334,41.474998474121094,-1.4175000190734863
8.8057046,0.3323279917240143,-1.169003963470459,-0.16665199398994446,-16.327499389648438,169.4875030517578,7.875
8.82133625,-0.19715198874473572,-1.0099159479141235,-0.26034799218177795,137.9875030517578,268.6424865722656,-19.145000457763672
8.8369679,-0.4736039936542511,-1.016503930091858,-0.011467999778687954,214.70750427246094,315.8399963378906,-36.04999923706055
8.8587184,-0.6087799668312073,-0.7312679886817932,0.1361519992351532,261.94000244140625,324.25750732421875,-32.497501373291016
8.874413,-0.3416000008583069,-0.6253719925880432,2.456347942352295,318.3074951171875,121.7300033569336,-52.46500015258789
8.8899293,0.6746599674224854,-0.9491599798202515,0.7610359787940979,78.24250030517578,-89.51249694824219,-47.42499923706055
8.9056175,0.11980399489402771,-1.3327280282974243,-0.6129279732704163,78.19000244140625,-58.380001068115234,-19.407499313354492
8.9213057,-0.057583998888731,-0.746396005153656,0.18812400102615356,246.3300018310547,79.32749938964844,-33.057498931884766
8.9898598,-0.15493999421596527,-0.7151640057563782,0.6963759660720825,227.7100067138672,106.87249755859375,-33.967498779296875
9.00551615,0.03415999934077263,-0.6658759713172913,0.8432639837265015,128.625,61.337501525878906,-18.200000762939453
9.0211725,0.44139599800109863,-0.9413520097732544,0.47970399260520935,76.2125015258789,47.42499923706055,-18.497499465942383
9.0399537,0.08930400013923645,-0.8744959831237793,0.5233799815177917,85.8375015258789,109.00749969482422,-49.0525016784668
9.0587349,-0.3933279812335968,-0.6285439729690552,0.3850319981575012,107.2925033569336,125.24749755859375,-42.962501525878906
9.0743754,-0.27303600311279297,-0.7068679928779602,0.6832000017166138,16.309999465942383,101.97250366210938,0.4375
9.095210166666666,0.37331998348236084,-1.2958840131759644,0.6400119662284851,37.310001373291016,72.1875,1.4175000190734863
9.116044933333333,0.2286279946565628,-1.3312640190124512,0.6448919773101807,97.28250122070312,81.25250244140625,-49.962501525878906
9.1368797,-0.10516399890184402,-0.5241119861602783,0.45993998646736145,92.29499816894531,107.74749755859375,-253.47000122070312
9.1479502,0.28303998708724976,-0.8400920033454895,0.7466399669647217,67.4800033569336,72.9749984741211,-249.89999389648438
9.1590207,0.8830359578132629,-0.8115440011024475,0.5670560002326965,111.30000305175781,66.91999816894531,-235.46249389648438
9.174700049999998,0.6819800138473511,-0.6224439740180969,0.5155720114707947,115.08000183105469,73.8324966430664,-192.5175018310547
9.1903794,0.5209400057792664,-0.6043879985809326,0.4999559819698334,81.88249969482422,86.625,-131.14500427246094
9.2216313,0.6417199969291687,-0.6875919699668884,0.5058119893074036,47.14500045776367,87.04499816894531,-102.0250015258789
9.2403126,0.4899519979953766,-0.5753520131111145,0.3625839948654175,15.697500228881836,113.08499908447266,-77.22750091552734
9.2589939,0.5485119819641113,-0.8466799855232239,0.5243560075759888,22.854999542236328,91.57749938964844,-120.34750366210938
9.2901926,0.2432679980993271,-0.9345200061798096,0.3555079996585846,-0.2800000011920929,110.28500366210938,-120.99500274658203
9.3058716,0.20739999413490295,-0.9547719955444336,0.4526199996471405,0.6650000214576721,91.0,-115.02750396728516
9.3215506,-0.2588839828968048,-1.0582280158996582,0.6243959665298462,-9.642499923706055,60.95249938964844,-105.7699966430664
9.3589213,-0.5836479663848877,-1.1011719703674316,0.9464759826660156,-16.65999984741211,11.84749984741211,-56.17499923706055
9.36674975,0.021959999576210976,-0.6897879838943481,1.3568840026855469,24.360000610351562,8.977499961853027,-47.459999084472656
9.3745782,0.3089039921760559,-0.7832399606704712,0.9006040096282959,31.3075008392334,80.9375,-120.97750091552734
9.4058411,-0.5131319761276245,-1.1909639835357666,0.5780360102653503,13.037500381469727,72.39749908447266,-118.6675033569336
9.421461950000001,-0.583404004573822,-0.640500009059906,1.1785199642181396,6.317500114440918,-73.43000030517578,-4.742499828338623
9.4370828,-0.6429399847984314,-0.33940398693084717,1.5076760053634644,9.380000114440918,-50.102500915527344,13.842499732971191
9.4587805,-1.2858799695968628,-0.5604680180549622,0.8378959894180298,-2.992500066757202,95.07749938964844,-0.19249999523162842
9.474433999999999,-0.5333839654922485,-0.24765999615192413,1.0684759616851807,49.42000198364258,-54.162498474121094,27.77250099182129
9.4900875,0.7115039825439453,-0.40528398752212524,1.3300440311431885,55.002498626708984,-63.209999084472656,-7.349999904632568
9.512979833333333,0.6287879943847656,0.006831999868154526,0.7193120121955872,71.50499725341797,-21.315000534057617,-16.030000686645508
9.535872166666667,0.6653879880905151,-0.06002400070428848,0.5067880153656006,37.22249984741211,1.4175000190734863,-48.212501525878906
9.5587645,0.47043198347091675,-0.2327760010957718,0.3496519923210144,-1.0850000381469727,29.417499542236328,-99.94249725341797
9.5900116,1.0753079652786255,-0.41577598452568054,0.6905199885368347,-43.68000030517578,18.829999923706055,-118.80750274658203
9.6212587,1.40885591506958,-0.7671359777450562,0.7644519805908203,-60.47999954223633,82.98500061035156,-141.0850067138672
9.6399984,0.9950319528579712,-1.0182119607925415,0.6268360018730164,-32.00749969482422,146.84249877929688,-184.1699981689453
9.6587381,0.39893999695777893,-0.9855159521102905,0.4911719858646393,-6.789999961853027,131.28500366210938,-207.91749572753906
9.6743917,-0.12126799672842026,-1.0045479536056519,0.5416799783706665,-31.780000686645508,68.5824966430664,-197.90750122070312
9.69002245,-0.5489999651908875,-1.564039945602417,0.8191080093383789,-76.4574966430664,8.295000076293945,-149.90499877929688
9.7056532,-0.21252399682998657,-0.9906399846076965,1.6499279737472534,-75.49500274658203,-53.147499084472656,-31.43000030517578
9.7369075,-0.24155999720096588,-1.1714439392089844,1.3022279739379883,-34.755001068115234,58.782501220703125,-15.295000076293945
9.7590485,-0.1937360018491745,-1.099951982498169,1.1080039739608765,34.42250061035156,48.29999923706055,-14.787500381469727
9.7746725,0.18544000387191772,-0.8571720123291016,1.2673360109329224,57.032501220703125,-21.489999771118164,-48.49250030517578
9.7903805,0.1890999972820282,-0.8859639763832092,1.1599760055541992,34.49250030517578,-23.887500762939453,-116.60250091552734
9.813299366666666,-0.06026799976825714,-0.9067040085792542,0.965507984161377,54.127498626708984,-26.635000228881836,-142.04750061035156
9.836218233333334,-0.3357439935207367,-0.7295599579811096,0.8374080061912537,80.67500305175781,-50.224998474121094,-118.42250061035156
9.8591371,-0.4699440002441406,-0.590723991394043,0.7420039772987366,83.16000366210938,-67.4625015258789,-94.81500244140625
9.8747673,-0.3618519902229309,-0.5216720104217529,0.9098759889602661,83.68499755859375,-83.16000366210938,-78.55750274658203
9.8903975,-0.4470079839229584,-0.6656320095062256,0.9264679551124573,89.05750274658203,-46.77750015258789,-56.279998779296875
9.9060174,-0.628055989742279,-0.7151640057563782,0.7263879776000977,117.14500427246094,-28.6825008392334,-11.147500038146973
9.9216373,-0.6278119683265686,-0.5109359622001648,0.8505839705467224,150.58749389648438,-72.46749877929688,42.630001068115234
9.959039,-0.6829559803009033,-0.44139599800109863,0.8232559561729431,151.67250061035156,-98.50749969482422,71.06749725341797
9.96683895,-0.6085360050201416,-0.4365159869194031,0.8774240016937256,155.43499755859375,-143.0625,76.24749755859375
9.9746389,-0.4594520032405853,-0.550707995891571,0.8796199560165405,177.1875,-169.9600067138672,78.73249816894531
10.0059397,-0.32720398902893066,-0.3933279812335968,0.8200839757919312,203.94500732421875,-173.4774932861328,98.0875015258789
10.0588491,-0.19446799159049988,-0.2269199937582016,0.8234999775886536,209.02000427246094,-165.32249450683594,121.41500091552734
10.0667175,-0.05709599703550339,-0.17372798919677734,0.6253719925880432,207.69000244140625,-147.96249389648438,138.75750732421875
10.0745859,0.20813199877738953,-0.11150799691677094,0.5658360123634338,202.26499938964844,-146.66749572753906,147.71749877929688
10.082362150000002,0.4501799941062927,-0.14761999249458313,0.6712439656257629,189.03500366210938,-153.3699951171875,139.125
10.0901384,0.6034119725227356,-0.1710439920425415,0.7071120142936707,183.3300018310547,-142.52000427246094,131.54750061035156
10.1057992,0.7627440094947815,-0.2803559899330139,0.3967439830303192,158.6024932861328,-104.2300033569336,164.6750030517578
10.12146,1.044808030128479,-0.062219999730587006,0.5831599831581116,177.48500061035156,-115.0625,157.2899932861328
10.158859,0.9550159573554993,0.09686800092458725,0.6444039940834045,124.65250396728516,-82.75749969482422,125.42250061035156
10.189996,0.7973920106887817,-0.3130519986152649,0.19593200087547302,56.38500213623047,-62.212501525878906,103.3375015258789
10.2212696,1.0118680000305176,-0.5177679657936096,-0.056120000779628754,68.3375015258789,-115.22000122070312,110.47750091552734
10.2400224,1.3405359983444214,-0.23082399368286133,0.008539999835193157,104.80750274658203,-178.9550018310547,108.23750305175781
10.2587752,1.3598120212554932,0.25058799982070923,0.41333597898483276,61.75749969482422,-192.02749633789062,77.12249755859375
10.2744114,0.9354959726333618,-0.010247999802231789,0.34696799516677856,-66.53500366210938,-164.20249938964844,33.14500045776367
10.290037850000001,0.9181720018386841,-0.5868200063705444,0.1105320006608963,-109.21749877929688,-182.99749755859375,26.424999237060547
10.3056643,0.9701439738273621,-0.7561559677124023,0.04513999819755554,-5.914999961853027,-242.8300018310547,41.5625
10.3368886,1.2431799173355103,-0.4594520032405853,0.027084000408649445,85.78500366210938,-291.8999938964844,45.290000915527344
10.3590405,1.3441959619522095,-0.2979239821434021,-0.05660799890756607,72.88749694824219,-302.9949951171875,31.9375
10.3747978,1.0584720373153687,-0.3996720016002655,-0.04367600008845329,68.37249755859375,-276.1499938964844,-7.349999904632568
10.3903911,1.0160160064697266,-0.30914798378944397,-0.01659199967980385,93.44999694824219,-185.4300079345703,-39.07749938964844
10.40602325,0.8181319832801819,-0.32427600026130676,-0.5829159617424011,38.779998779296875,-60.970001220703125,-27.684999465942383
10.4216554,0.7256559729576111,-0.46457600593566895,-0.9018239974975586,-20.63249969482422,-43.522499084472656,-7.875
10.4406116,0.762499988079071,-0.8264279961585999,-0.7834839820861816,-10.447500228881836,-54.372501373291016,-38.67499923706055
10.4595678,1.1480200290679932,-0.17909599840641022,-0.399183988571167,51.99250030517578,-24.13249969482422,-97.40499877929688
10.4908144,0.6158559918403625,0.034648001194000244,-0.3184199929237366,-36.084999084472656,-27.684999465942383,-3.115000009536743
10.5064008,0.9855159521102905,-0.34306398034095764,-0.16909199953079224,-140.12249755859375,-84.94499969482422,94.46500396728516
10.5219872,1.260259985923767,-0.22155199944972992,-0.1483519971370697,-218.54000854492188,-102.07749938964844,101.34249877929688
10.5595298,1.060912013053894,-0.3799079954624176,-0.305976003408432,-286.2124938964844,-30.747499465942383,105.69999694824219
10.5673672,1.1062959432601929,-0.4379799962043762,-0.11589999496936798,-220.99000549316406,6.702499866485596,105.69999694824219
10.5752046,1.0496879816055298,-0.07197999954223633,-0.26791200041770935,-131.16250610351562,66.86750030517578,103.38999938964844
10.6064596,0.8835240006446838,-0.3306199908256531,-0.5533919930458069,-96.1624984741211,26.582500457763672,151.53250122070312
10.62205065,1.0094280242919922,-0.4333440065383911,-0.5021519660949707,25.725000381469727,-52.709999084472656,156.24000549316406
10.6376417,1.1089799404144287,-0.24058400094509125,-0.3501400053501129,174.8074951171875,-81.7074966430664,104.00250244140625
10.6594815,1.119715929031372,-0.06880799680948257,-0.10247999429702759,191.625,-67.95249938964844,37.95750045776367
10.675106249999999,0.9855159521102905,-0.3201279938220978,-0.1407880038022995,131.0399932861328,-63.17499923706055,-21.735000610351562
10.690731,1.1682720184326172,-0.6168320178985596,-0.01903199963271618,158.3925018310547,-69.58000183105469,-53.182498931884766
10.7219901,1.1294759511947632,-0.2744999825954437,-0.06368400156497955,207.5675048828125,-27.755001068115234,-81.14749908447266
10.740686149999998,0.7539600133895874,-0.24765999615192413,-0.3130519986152649,89.49500274658203,-6.230000019073486,-64.78500366210938
10.7593822,0.9264679551124573,-0.39698800444602966,-0.45188799500465393,62.07250213623047,24.5,-110.25
10.7906187,0.80349200963974,-0.5182560086250305,-0.3957679867744446,81.2874984741211,-24.010000228881836,-89.7750015258789
10.8219075,0.859611988067627,-0.2727919816970825,-0.1925159990787506,49.36750030517578,-89.61750030517578,-22.049999237060547
10.8405752,0.9799039959907532,-0.20032399892807007,-0.13468798995018005,21.559999465942383,-92.80249786376953,-3.622499942779541
10.8592429,0.9130479693412781,-0.2581520080566406,-0.2681559920310974,29.767499923706055,-49.90999984741211,-7.909999847412109
10.8749247,0.9064599871635437,-0.260591983795166,-0.3369639813899994,34.42250061035156,-40.775001525878906,-18.287500381469727
10.890525499999999,0.9115839600563049,-0.30402398109436035,-0.4169960021972656,15.942500114440918,-50.33000183105469,-35.33250045776367
10.9061263,0.9508680105209351,-0.3123199939727783,-0.40918800234794617,-29.505001068115234,-52.09749984741211,-58.59000015258789
10.9374053,0.8105679750442505,-0.41967999935150146,-0.4828760027885437,-78.3125,-41.42250061035156,-56.42000198364258
10.94823575,0.6849079728126526,-0.31915199756622314,-0.3908880054950714,-55.82500076293945,-41.5625,-26.21500015258789
10.9590662,0.8037359714508057,-0.20374000072479248,-0.34184399247169495,-34.282501220703125,-40.6875,-10.447500228881836
10.9903028,0.8583920001983643,-0.2786479890346527,-0.3745400011539459,-17.114999771118164,-22.225000381469727,-5.022500038146973
11.005990149999999,0.7895839810371399,-0.19617599248886108,-0.3067080080509186,9.292500495910645,-11.375,15.4350004196167
11.0216775,0.9545279741287231,-0.0226919986307621,-0.27742800116539,5.565000057220459,-0.5950000286102295,11.077500343322754
11.0594752,0.9611159563064575,-0.21691599488258362,-0.2896279990673065,-25.322500228881836,12.792500495910645,-3.640000104904175
11.0750995,0.9789279699325562,-0.366487979888916,-0.3240320086479187,-46.900001525878906,14.052499771118164,3.3600001335144043
11.0907238,0.8925519585609436,-0.10589599609375,-0.39893999695777893,-62.26499938964844,-9.15250015258789,20.177499771118164
11.118842866666666,1.038219928741455,-0.19446799159049988,-0.24814799427986145,-74.58499908447266,-20.59749984741211,4.987500190734863
11.146961933333333,1.0731120109558105,-0.2642520070075989,-0.20471599698066711,-63.647499084472656,5.197500228881836,3.5174999237060547
11.175081,0.9884439706802368,-0.21886800229549408,-0.15957599878311157,-45.20249938964844,34.52750015258789,16.712499618530273
11.185500600000001,0.8979200124740601,-0.24131599068641663,-0.22008799016475677,-63.4900016784668,57.76750183105469,26.232500076293945
11.1959202,0.9147560000419617,-0.2886520028114319,-0.3555079996585846,-89.80999755859375,63.209999084472656,36.907501220703125
11.2063398,0.8625400066375732,-0.13566400110721588,-0.4201679825782776,-85.03250122070312,46.79500198364258,45.5525016784668
11.237587,0.8188639879226685,-0.16787199676036835,-0.41870400309562683,-52.23749923706055,34.59749984741211,30.380001068115234
11.24844705,0.8149600028991699,-0.1605519950389862,-0.4555479884147644,-31.290000915527344,16.467500686645508,26.6875
11.2593071,0.798367977142334,-0.09052399545907974,-0.34867599606513977,-19.774999618530273,7.192500114440918,17.447500228881836
11.27489185,0.8569279909133911,-0.1378600001335144,-0.3111000061035156,-7.892499923706055,21.594999313354492,-1.6449999809265137
11.2904766,0.9047519564628601,-0.20959599316120148,-0.37502798438072205,-8.505000114440918,32.95249938964844,-0.7175000309944153
11.3217294,0.9730719923973083,-0.2537599802017212,-0.3235439956188202,-16.030000686645508,30.817501068115234,14.297499656677246
11.3407259,0.9181720018386841,-0.2181359976530075,-0.3264719843864441,-33.38999938964844,35.45500183105469,25.6200008392334
11.3597224,0.9462319612503052,-0.2357039898633957,-0.2898719906806946,-38.43000030517578,37.834999084472656,31.412500381469727
11.39102935,0.9450119733810425,-0.23765599727630615,-0.3584359884262085,-32.619998931884766,42.85750198364258,30.83500099182129
11.4223363,0.9393999576568604,-0.2256999909877777,-0.36111998558044434,-27.212499618530273,36.6974983215332,26.040000915527344
11.4378366,0.9013359546661377,-0.21106000244617462,-0.3403799831867218,-32.23500061035156,29.225000381469727,19.0049991607666
11.4567908,0.9611159563064575,-0.27669599652290344,-0.3537999987602234,-37.064998626708984,26.477500915527344,13.545000076293945
11.475745,1.007964015007019,-0.26669198274612427,-0.3835679888725281,-36.592498779296875,23.344999313354492,12.914999961853027
11.5070052,1.0523719787597656,-0.2769399881362915,-0.3777119815349579,-29.52250099182129,19.28499984741211,13.09000015258789
11.52261985,0.9913719892501831,-0.25693199038505554,-0.3152479827404022,-16.607500076293945,12.039999961853027,18.042499542236328
11.5382345,1.0125999450683594,-0.2025199979543686,-0.22130799293518066,-19.0575008392334,5.96750020980835,15.34749984741211
11.54915905,1.0182119607925415,-0.2508319914340973,-0.1995919942855835,-37.310001373291016,9.239999771118164,10.220000267028809
11.5600836,1.0318759679794312,-0.31207600235939026,-0.2583959996700287,-36.189998626708984,10.045000076293945,4.882500171661377
11.5914001,1.0357799530029297,-0.3013399839401245,-0.22008799016475677,-18.392499923706055,-1.6800000667572021,1.6449999809265137
11.60703835,1.0118680000305176,-0.30060797929763794,-0.19885998964309692,-11.899999618530273,-14.647500038146973,3.325000047683716
11.6226766,0.998691976070404,-0.26620399951934814,-0.22081999480724335,-7.017499923706055,-20.737499237060547,3.307500123977661
11.6599352,0.9813680052757263,-0.22667600214481354,-0.24887999892234802,-0.8575000166893005,-19.827499389648438,-0.8575000166893005
11.675598,0.9267119765281677,-0.18397599458694458,-0.2664479911327362,-3.3949999809265137,-13.807499885559082,-4.550000190734863
11.6912608,0.8625400066375732,-0.1373720020055771,-0.3286679983139038,-13.475000381469727,-6.107500076293945,-7.402500152587891
11.7380564,0.8461920022964478,-0.13541999459266663,-0.43309998512268066,-21.64750099182129,-0.3149999976158142,-7.28000020980835
11.7491331,0.761523962020874,-0.10394399613142014,-0.6307399868965149,-22.837499618530273,-1.2424999475479126,-2.240000009536743
11.7602098,0.7529839873313904,-0.0651479959487915,-0.6231759786605835,-28.36750030517578,-23.047500610351562,4.96999979019165
11.7759593,0.8217920064926147,-0.11321599781513214,-0.5233799815177917,-41.26499938964844,-31.377500534057617,7.052500247955322
11.7915986,0.8625400066375732,-0.08051999658346176,-0.476531982421875,-60.217498779296875,-18.760000228881836,18.34000015258789
11.8072379,0.7912920117378235,-0.034648001194000244,-0.5724239945411682,-70.12249755859375,-2.3450000286102295,29.697500228881836
11.838454,0.762499988079071,-0.05782799795269966,-0.5058119893074036,-70.75250244140625,9.082500457763672,38.272499084472656
11.84938075,0.8347240090370178,-0.015859998762607574,-0.43309998512268066,-87.13249969482422,36.13750076293945,51.904998779296875
11.8603075,0.9650200009346008,-0.09857599437236786,-0.5097159743309021,-127.2249984741211,68.49500274658203,65.2750015258789
11.87594975,0.9757559895515442,-0.22033199667930603,-0.615123987197876,-153.68499755859375,80.20249938964844,65.41500091552734
11.891592,0.977463960647583,-0.24253599345684052,-0.6258599758148193,-140.52499389648438,63.192501068115234,64.38249969482422
11.9228501,0.7249239683151245,-0.08003199845552444,-0.5499759912490845,-121.55500030517578,34.317501068115234,55.650001525878906
11.94159125,0.6387919783592224,-0.14420399069786072,-0.5184999704360962,-118.17749786376953,7.699999809265137,56.10499954223633
11.9603324,0.5001999735832214,-0.1163880005478859,-0.31280800700187683,-92.81999969482422,-15.837499618530273,57.189998626708984
11.991594800000001,0.6497719883918762,0.12883199751377106,-0.2823079824447632,-83.4749984741211,-33.79249954223633,110.54750061035156
12.0228572,0.21716000139713287,0.17909599840641022,-0.10735999792814255,-187.0574951171875,-70.73500061035156,370.2124938964844
12.0605063,-0.04684799909591675,-0.25058799982070923,-0.27327999472618103,-231.97999572753906,52.09749984741211,223.5625
12.0683808,-0.03952799737453461,-0.1227319985628128,-0.12663599848747253,-71.2249984741211,76.93000030517578,59.13249969482422
12.0762553,-0.053679998964071274,-0.03440399840474129,-0.07539600133895874,67.30500030517578,69.6675033569336,17.114999771118164
12.1074929,0.024643998593091965,0.08051999658346176,-0.007075999863445759,104.70249938964844,60.32250213623047,-16.450000762939453
12.12306115,0.02025200054049492,0.10955599695444107,0.008539999835193157,65.57250213623047,61.407501220703125,-18.287500381469727
12.1386294,-0.013175999745726585,-0.05636399984359741,-0.07588399946689606,37.380001068115234,57.522499084472656,-23.11750030517578
12.1608493,0.0058559998869895935,-0.0012199999764561653,-0.03513599932193756,100.06500244140625,50.102500915527344,-49.26250076293945
12.181707266666667,0.05441199988126755,0.024643998593091965,-0.013663999736309052,139.91250610351562,58.59000015258789,-66.11499786376953
12.202565233333333,0.08466799557209015,0.0727119967341423,0.07466399669647217,154.91000366210938,81.2699966430664,-72.5374984741211
12.2234232,0.08198399841785431,0.03855200111865997,0.11394799500703812,121.60749816894531,111.26499938964844,-70.80500030517578
12.242163049999998,0.06783200055360794,-0.024643998593091965,0.0861319974064827,91.20999908447266,132.00250244140625,-66.5875015258789
12.2609029,0.3862519860267639,0.10443200170993805,-0.32964399456977844,72.99250030517578,127.06749725341797,-78.47000122070312
12.2765361,0.23838800191879272,-0.5658360123634338,-0.9567239880561829,378.052490234375,60.07749938964844,-220.16749572753906
12.2921693,0.29523998498916626,-0.8444839715957642,-0.9459879994392395,564.6375122070312,4.637499809265137,157.41250610351562
12.3234448,4.413471698760986,-0.5136200189590454,0.6497719883918762,545.947509765625,135.74749755859375,528.39501953125
12.3389919,4.5928120613098145,-1.1058080196380615,5.073003768920898,142.4324951171875,405.1600036621094,467.86248779296875
12.357682950000001,-4.502776145935059,-3.971587896347046,2.928731918334961,-69.80750274658203,153.8249969482422,166.6699981689453
12.376374,-1.3134520053863525,0.7820199728012085,0.03757599741220474,19.4950008392334,-4.287499904632568,-1.5750000476837158
12.392058,0.006099999882280827,-0.18836799263954163,-0.02147199958562851,-24.184999465942383,-82.1449966430664,-19.040000915527344
12.407742,0.047335997223854065,-0.1983719915151596,0.26571598649024963,-125.44000244140625,-248.18499755859375,-14.279999732971191
12.4390013,0.07295599579811096,0.023423999547958374,0.17006799578666687,-321.63250732421875,-334.197509765625,-5.442500114440918
12.44987,0.15152399241924286,0.3618519902229309,0.15030398964881897,-415.1700134277344,-326.25250244140625,-4.322500228881836
12.4607387,-0.76664799451828,0.2537599802017212,-0.19593200087547302,-368.69000244140625,-237.5449981689453,-10.220000267028809
12.481611366666668,-0.11541199684143066,-0.48604798316955566,-0.5143519639968872,47.23250198364258,-211.1024932861328,-79.64250183105469
12.502484033333333,0.04294399917125702,-0.17445999383926392,-0.17494799196720123,403.7250061035156,-317.239990234375,-50.78499984741211
12.5233567,0.6753919720649719,-0.6868599653244019,0.5375319719314575,258.4574890136719,-162.64500427246094,84.27999877929688
12.5422819,2.390955924987793,-1.0777479410171509,2.4792840480804443,-124.3550033569336,223.66749572753906,319.88250732421875
12.5612071,-0.4584759771823883,-1.9668840169906616,2.5024640560150146,-398.5625,262.114990234375,316.43499755859375
12.592456250000001,0.18080399930477142,-0.2642520070075989,0.27498799562454224,-247.10000610351562,-103.7925033569336,240.97500610351562
12.6237054,-0.025619998574256897,-0.16030800342559814,-0.2896279990673065,-226.4324951171875,-135.8350067138672,288.1025085449219
12.6392806,0.2898719906806946,-0.2235039919614792,0.3093920052051544,-162.83749389648438,-168.6824951171875,284.3575134277344
12.658005,-0.16665199398994446,-1.983475923538208,0.2705959975719452,-201.0574951171875,-111.6675033569336,343.8924865722656
12.6767294,-0.7746999859809875,-2.7674479484558105,-0.28596800565719604,-400.43499755859375,-74.69000244140625,135.04750061035156
12.7048594,-0.22374799847602844,-0.22033199667930603,-0.44237199425697327,68.3550033569336,-90.24749755859375,-96.40750122070312
12.7329894,0.021959999576210976,0.05514399707317352,-0.09589199721813202,234.5,-133.91000366210938,-77.26249694824219
12.7611194,0.3891800045967102,-1.3019839525222778,0.2437559962272644,115.0625,-149.1175079345703,11.567500114440918
12.771528833333333,-0.03757599741220474,-1.549399971961975,0.32793599367141724,-114.9749984741211,-27.8075008392334,137.5850067138672
12.781938266666668,-0.305976003408432,-1.1033679246902466,-0.22472399473190308,-213.2375030517578,-20.790000915527344,31.920000076293945
12.7923477,-0.03367199748754501,-0.4858039915561676,-0.3008520007133484,59.56999969482422,-44.939998626708984,-23.65999984741211
12.8080006,0.15957599878311157,-1.2968599796295166,0.16421200335025787,92.48750305175781,-43.48749923706055,-20.614999771118164
12.8236535,-0.00024399999529123306,-1.0845799446105957,0.1290760040283203,-0.8224999904632568,15.855000495910645,7.402500152587891
12.8609278,-0.027327999472618103,-0.7849479913711548,-0.014883999712765217,-13.15999984741211,14.612500190734863,1.2599999904632568
12.8922796,0.04806799814105034,-1.1790080070495605,0.12053599953651428,16.607500076293945,0.3149999976158142,-5.547500133514404
12.9079051,0.01903199963271618,-0.8993839621543884,0.1361519992351532,14.192500114440918,3.884999990463257,-1.4350000619888306
12.9235306,0.021959999576210976,-1.038219928741455,0.10565199702978134,-5.09250020980835,0.3675000071525574,1.225000023841858
12.939043,0.012931999750435352,-0.9906399846076965,0.052947998046875,-8.1899995803833,-0.38499999046325684,1.662500023841858
12.9614336,0.020495999604463577,-1.0035719871520996,0.07905599474906921,3.237499952316284,0.42000001668930054,-0.9449999928474426
12.9770527,0.022935999557375908,-0.9972279667854309,0.11492399871349335,5.565000057220459,0.7524999976158142,-1.190000057220459
12.9926758,0.024643998593091965,-1.0013760328292847,0.09662400186061859,-2.2225000858306885,0.07000000029802322,0.4724999964237213
13.0082989,0.01439599972218275,-0.9991799592971802,0.06661199778318405,-3.6050000190734863,0.08749999850988388,0.6474999785423279
13.0395508,0.01512799970805645,-1.0035719871520996,0.08442399650812149,2.2750000953674316,0.5425000190734863,-0.6299999952316284
13.05047965,0.028060000389814377,-0.998691976070404,0.10101599991321564,1.75,0.22750000655651093,-0.7524999976158142
13.0614085,0.015371999703347683,-1.0008879899978638,0.08735200017690659,-1.277500033378601,0.2800000011920929,0.6474999785423279
13.0926635,0.022204000502824783,-0.998691976070404,0.08540000021457672,0.26249998807907104,0.17499999701976776,-0.26249998807907104
13.108285200000001,0.02000799961388111,-1.002351999282837,0.09516000002622604,0.8050000071525574,0.38499999046325684,-0.26249998807907104
13.1239069,0.01781199872493744,-1.0021079778671265,0.08832799643278122,1.0325000286102295,0.3499999940395355,-0.14000000059604645
13.142653249999999,0.023423999547958374,-0.9979599714279175,0.09906399995088577,1.4175000190734863,0.3149999976158142,-0.17499999701976776
13.1613996,0.01878799870610237,-1.0003999471664429,0.08735200017690659,-1.4700000286102295,0.10500000417232513,0.07000000029802322
13.2081521,0.020983999595046043,-1.0033279657363892,0.07588399946689606,-0.8400000333786011,0.21000000834465027,0.14000000059604645
13.2239032,0.018300000578165054,-0.9945439696311951,0.09516000002622604,1.784999966621399,0.49000000953674316,-0.19249999523162842
13.2395077,0.023423999547958374,-1.006011962890625,0.0936959981918335,-0.03500000014901161,0.21000000834465027,-0.4724999964237213
13.258446450000001,0.018055999651551247,-0.9698999524116516,0.11419199407100677,-1.4874999523162842,0.22750000655651093,0.24500000476837158
13.2773852,0.024399999529123306,-1.0521279573440552,0.10101599991321564,-26.145000457763672,1.1200000047683716,2.9749999046325684
13.3086388,0.00634399987757206,-0.9791719913482666,-0.022204000502824783,-13.142499923706055,-4.09499979019165,5.197500228881836
13.3242626,0.008295999839901924,-1.0047919750213623,0.03855200111865997,21.612499237060547,2.9574999809265137,-6.142499923706055
13.3398864,0.03294000029563904,-1.0001559257507324,0.1651879996061325,24.9375,3.307500123977661,-3.7100000381469727
13.357753033333333,0.029523998498916626,-0.9860039949417114,0.1332239955663681,0.1574999988079071,1.4874999523162842,0.19249999523162842
13.375619666666665,0.028060000389814377,-1.0077199935913086,0.08808399736881256,-12.442500114440918,-0.6825000047683716,2.5374999046325684
13.3934863,0.0012199999764561653,-0.9996680021286011,0.03635599836707115,-7.559999942779541,-0.21000000834465027,0.8924999833106995
13.4247901,0.018543999642133713,-1.0025960206985474,0.08149600028991699,5.827499866485596,0.5600000023841858,-1.3125
13.4435037,0.0302559994161129,-0.9982039928436279,0.10858000069856644,4.480000019073486,0.45500001311302185,-1.1024999618530273
13.4622173,0.009271999821066856,-1.0006439685821533,0.08393599838018417,-2.799999952316284,0.3499999940395355,1.3825000524520874
13.4933634,0.024156000465154648,-1.0021079778671265,0.07222399860620499,-1.5924999713897705,-0.03500000014901161,-0.4375
13.5090723,0.01756799966096878,-1.0016199350357056,0.09320800006389618,1.4524999856948853,0.45500001311302185,-0.3675000071525574
13.519499999999999,0.01512799970805645,-1.0021079778671265,0.07954400032758713,-0.03500000014901161,0.26249998807907104,0.017500000074505806
13.5299277,0.02147199958562851,-0.9999119639396667,0.0878399983048439,1.190000057220459,0.3149999976158142,-0.5950000286102295
13.5403554,0.01512799970805645,-0.9989359974861145,0.08271599560976028,0.5600000023841858,0.3499999940395355,0.017500000074505806
13.5777254,0.022447999566793442,-0.9982039928436279,0.08832799643278122,1.4524999856948853,0.2800000011920929,-0.699999988079071
13.593412650000001,0.018543999642133713,-0.9952759742736816,0.08173999935388565,-0.19249999523162842,0.2800000011920929,0.07000000029802322
13.6090999,0.01878799870610237,-1.0040600299835205,0.08540000021457672,0.875,0.26249998807907104,-0.3149999976158142
13.6403604,0.021715998649597168,-0.9979599714279175,0.09027999639511108,0.49000000953674316,0.29750001430511475,-0.19249999523162842
13.65124585,0.017324000597000122,-1.0040600299835205,0.07978799939155579,-0.4375,0.17499999701976776,0.08749999850988388
13.6621313,0.020983999595046043,-1.0033279657363892,0.08735200017690659,0.29750001430511475,0.26249998807907104,-0.2800000011920929
13.6933327,0.017079999670386314,-0.9991799592971802,0.08417999744415283,-0.1574999988079071,0.29750001430511475,0.05250000208616257
13.70897605,0.02025200054049492,-1.0030839443206787,0.08442399650812149,0.29750001430511475,0.24500000476837158,-0.22750000655651093
13.7246194,0.018543999642133713,-0.9974719882011414,0.08588799834251404,0.5074999928474426,0.3149999976158142,-0.14000000059604645
13.7624807,0.020739998668432236,-1.0033279657363892,0.08442399650812149,0.3499999940395355,0.21000000834465027,-0.2800000011920929
13.777993,0.01903199963271618,-0.9991799592971802,0.08710800111293793,0.24500000476837158,0.33250001072883606,-0.12250000238418579
13.809377,0.019276000559329987,-1.001863956451416,0.08466799557209015,0.21000000834465027,0.22750000655651093,-0.10500000417232513
13.825007,0.020983999595046043,-0.9994239807128906,0.08540000021457672,0.4375,0.29750001430511475,-0.26249998807907104
13.840637,0.018300000578165054,-1.0021079778671265,0.08393599838018417,0.017500000074505806,0.3149999976158142,-0.07000000029802322
13.8594215,0.019519999623298645,-0.998691976070404,0.08442399650812149,0.38499999046325684,0.26249998807907104,-0.17499999701976776
13.878206,0.019763998687267303,-1.0011320114135742,0.08661999553442001,0.29750001430511475,0.2800000011920929,-0.17499999701976776
13.9094293,0.018055999651551247,-0.9996680021286011,0.08588799834251404,0.12250000238418579,0.24500000476837158,-0.08749999850988388
13.9406817,0.01878799870610237,-1.0003999471664429,0.08247199654579163,0.33250001072883606,0.2800000011920929,-0.19249999523162842
13.95159445,0.019276000559329987,-1.0003999471664429,0.08735200017690659,0.5774999856948853,0.33250001072883606,-0.24500000476837158
13.9625072,0.019519999623298645,-1.0016199350357056,0.08540000021457672,-0.017500000074505806,0.26249998807907104,-0.05250000208616257
13.97809135,0.018543999642133713,-0.9994239807128906,0.08369199931621552,0.24500000476837158,0.2800000011920929,-0.1574999988079071
13.9936755,0.01903199963271618,-1.0006439685821533,0.08686399459838867,0.5074999928474426,0.24500000476837158,-0.2800000011920929
14.0250533,0.020739998668432236,-1.0006439685821533,0.08417999744415283,0.05250000208616257,0.19249999523162842,-0.10500000417232513
14.0437528,0.01903199963271618,-1.0003999471664429,0.08369199931621552,0.26249998807907104,0.29750001430511475,-0.12250000238418579
14.0624523,0.019519999623298645,-1.0003999471664429,0.08710800111293793,0.38499999046325684,0.26249998807907104,-0.19249999523162842
14.078036766666667,0.01903199963271618,-1.0016199350357056,0.08540000021457672,0.19249999523162842,0.26249998807907104,-0.12250000238418579
14.093621233333334,0.019276000559329987,-1.0013760328292847,0.08540000021457672,0.38499999046325684,0.2800000011920929,-0.19249999523162842
14.1092057,0.01903199963271618,-1.001863956451416,0.08588799834251404,0.2800000011920929,0.24500000476837158,-0.17499999701976776
14.12486945,0.018300000578165054,-1.0006439685821533,0.08369199931621552,0.17499999701976776,0.29750001430511475,-0.14000000059604645
14.1405332,0.019519999623298645,-1.0006439685821533,0.0861319974064827,0.42000001668930054,0.29750001430511475,-0.22750000655651093
14.1780508,0.019519999623298645,-0.9996680021286011,0.08686399459838867,0.17499999701976776,0.29750001430511475,-0.12250000238418579
14.19367325,0.01878799870610237,-1.0013760328292847,0.08344800025224686,0.12250000238418579,0.26249998807907104,-0.10500000417232513
14.2092957,0.019519999623298645,-1.0008879899978638,0.08588799834251404,0.4724999964237213,0.2800000011920929,-0.22750000655651093
14.2405279,0.019763998687267303,-1.0001559257507324,0.08637599647045135,0.29750001430511475,0.26249998807907104,-0.19249999523162842
14.2582106,0.018543999642133713,-1.0001559257507324,0.08515600115060806,0.14000000059604645,0.2800000011920929,-0.10500000417232513
14.2758933,0.019763998687267303,-1.0013760328292847,0.0849120020866394,0.24500000476837158,0.33250001072883606,-0.14000000059604645
14.293576,0.019519999623298645,-1.0016199350357056,0.08515600115060806,0.19249999523162842,0.24500000476837158,-0.14000000059604645
14.30923425,0.019519999623298645,-0.9999119639396667,0.08564399927854538,0.3149999976158142,0.3675000071525574,-0.17499999701976776
14.3248925,0.019519999623298645,-1.0016199350357056,0.08637599647045135,0.22750000655651093,0.3149999976158142,-0.1574999988079071
14.3622522,0.019276000559329987,-1.0008879899978638,0.0849120020866394,0.17499999701976776,0.29750001430511475,-0.10500000417232513
14.393579,0.019519999623298645,-1.0001559257507324,0.08515600115060806,0.33250001072883606,0.2800000011920929,-0.17499999701976776
14.4092379,0.019519999623298645,-1.0001559257507324,0.08637599647045135,0.29750001430511475,0.26249998807907104,-0.17499999701976776
14.424863850000001,0.019276000559329987,-1.002351999282837,0.08515600115060806,0.19249999523162842,0.2800000011920929,-0.17499999701976776
14.4404898,0.019276000559329987,-1.0001559257507324,0.08564399927854538,0.2800000011920929,0.33250001072883606,-0.1574999988079071
14.4780221,0.01903199963271618,-1.0006439685821533,0.08564399927854538,0.24500000476837158,0.2800000011920929,-0.12250000238418579
14.4936024,0.01903199963271618,-0.9999119639396667,0.08564399927854538,0.24500000476837158,0.26249998807907104,-0.14000000059604645
14.5091827,0.01903199963271618,-1.001863956451416,0.08564399927854538,0.3149999976158142,0.3149999976158142,-0.19249999523162842
14.524799250000001,0.018543999642133713,-1.0001559257507324,0.08466799557209015,0.22750000655651093,0.29750001430511475,-0.14000000059604645
14.5404158,0.019763998687267303,-1.0006439685821533,0.0849120020866394,0.21000000834465027,0.26249998807907104,-0.1574999988079071
14.5628133,0.02000799961388111,-1.0003999471664429,0.08564399927854538,0.3149999976158142,0.22750000655651093,-0.19249999523162842
14.57838345,0.019763998687267303,-1.0008879899978638,0.08588799834251404,0.24500000476837158,0.2800000011920929,-0.1574999988079071
14.5939536,0.01878799870610237,-1.002351999282837,0.0832040011882782,0.26249998807907104,0.26249998807907104,-0.14000000059604645
14.6253223,0.007075999863445759,-0.9759999513626099,0.08637599647045135,-0.017500000074505806,0.1574999988079071,-1.3125
14.6440618,0.03952799737453461,-1.0313879251480103,0.10589599609375,-2.5374999046325684,-0.14000000059604645,-1.4874999523162842
14.6628013,0.013663999736309052,-0.9840520024299622,0.0861319974064827,-7.052500247955322,0.4724999964237213,1.4524999856948853
14.6940262,0.016835998743772507,-1.0150399208068848,0.07685999572277069,-1.8550000190734863,0.7350000143051147,0.7875000238418579
14.701799600000001,0.007563999854028225,-0.9630680084228516,0.06075599789619446,-1.2074999809265137,0.22750000655651093,1.0674999952316284
14.709573,0.024399999529123306,-1.020651936531067,0.07930000126361847,5.547500133514404,-0.5074999928474426,-2.9574999809265137
14.740943,0.0378200002014637,-1.0213840007781982,0.14518000185489655,0.8400000333786011,0.8575000166893005,-0.42000001668930054
14.7596357,0.011467999778687954,-0.9601399898529053,0.07417599856853485,-17.290000915527344,0.7350000143051147,4.445000171661377
14.7783284,0.01756799966096878,-1.0404160022735596,0.02122800052165985,-14.350000381469727,0.5249999761581421,1.0149999856948853
14.8096254,0.011223999783396721,-0.9791719913482666,0.07149200141429901,0.33250001072883606,2.432500123977661,0.24500000476837158
14.82529985,0.010003999806940556,-0.9991799592971802,0.03513599932193756,4.637499809265137,1.7324999570846558,-1.190000057220459
14.8409743,0.04123599827289581,-1.030411958694458,0.10077200084924698,11.970000267028809,3.237499952316284,-2.625
14.85189665,0.023180000483989716,-1.0333399772644043,0.08247199654579163,6.474999904632568,1.3125,-1.6100000143051147
14.862819,0.02635199949145317,-0.977463960647583,0.07905599474906921,5.389999866485596,4.392499923706055,-0.5074999928474426
14.8940647,0.0017079999670386314,-1.0260199308395386,0.08222799748182297,4.480000019073486,6.474999904632568,-0.42000001668930054
14.909701,0.028547998517751694,-1.0008879899978638,0.08930400013923645,3.569999933242798,7.71750020980835,-1.5750000476837158
14.9253373,-0.011467999778687954,-0.9110959768295288,0.12419600039720535,-3.132499933242798,2.887500047683716,1.2599999904632568
14.9632449,0.05441199988126755,-1.1011719703674316,0.13224799931049347,-10.692500114440918,-14.052499771118164,-0.14000000059604645
14.9787545,0.01512799970805645,-0.9279319643974304,0.06002400070428848,-20.09000015258789,-10.272500038146973,3.7799999713897705
15.0100083,0.024399999529123306,-1.0467599630355835,0.04416399821639061,-25.217500686645508,-7.542500019073486,4.8125
15.025705550000001,0.0056119998916983604,-1.0111359357833862,0.07222399860620499,-28.80500030517578,8.680000305175781,6.107500076293945
15.0414028,-0.03660000115633011,-1.0252879858016968,0.09564799815416336,-43.04999923706055,16.012500762939453,2.362499952316284
15.0787842,0.06148799881339073,-1.0330959558486938,0.22155199944972992,-66.77999877929688,-13.2475004196167,6.527500152587891
15.0943763,0.022447999566793442,-1.1426520347595215,0.158843994140625,-112.875,-27.177499771118164,11.987500190734863
15.1099684,0.034648001194000244,-1.054811954498291,0.10540799796581268,-208.0225067138672,-50.20750045776367,36.29500198364258
15.1413066,0.11760799586772919,-1.0648159980773926,-0.3357439935207367,-328.0199890136719,-9.012499809265137,75.84500122070312
15.15218745,-0.17006799578666687,-0.9916160106658936,-0.5228919982910156,-245.52499389648438,82.49500274658203,101.5
15.1630683,-0.3806400001049042,-0.7873879671096802,-0.5914559960365295,-99.80249786376953,7.875,54.775001525878906
15.1787077,-0.3398919999599457,-0.9145119786262512,-0.36575600504875183,-35.227500915527344,-65.0824966430664,13.545000076293945
15.1943471,0.5109359622001648,-1.2709959745407104,0.2610799968242645,-25.917499542236328,-52.622501373291016,-26.844999313354492
15.2255869,-0.07295599579811096,-1.1965759992599487,-0.24277999997138977,20.002500534057617,111.16000366210938,-74.35749816894531
15.2443396,0.14151999354362488,-1.4478960037231445,0.6356199979782104,55.037498474121094,118.82499694824219,-115.39500427246094
15.2630923,0.12785600125789642,-1.4488719701766968,-0.11150799691677094,109.8125,188.44000244140625,-100.88749694824219
15.2785919,0.12639199197292328,-1.3893359899520874,-0.3213479816913605,106.76750183105469,191.1875,-47.040000915527344
15.29421655,0.3164680004119873,-1.3441959619522095,-0.31280800700187683,79.16999816894531,128.3800048828125,-52.92000198364258
15.3098412,0.3333039879798889,-1.5833159685134888,0.10979999601840973,28.454999923706055,63.4375,-85.2249984741211
15.3410947,0.19641999900341034,-1.6052759885787964,0.08930400013923645,-26.862499237060547,54.51250076293945,-49.157501220703125
15.3601143,0.1041879951953888,-1.3568840026855469,-0.08442399650812149,-31.989999771118164,25.094999313354492,5.022500038146973
15.3791339,0.16787199676036835,-1.2329319715499878,0.010247999802231789,8.697500228881836,21.122499465942383,11.654999732971191
15.399961933333334,0.3189080059528351,-1.201211929321289,-0.2810879945755005,47.3025016784668,65.06500244140625,-60.060001373291016
15.420789966666666,0.1012599989771843,-1.1604639291763306,-0.2971920073032379,34.96500015258789,76.70249938964844,-164.62249755859375
15.441618,0.044652000069618225,-1.2187799215316772,-0.14591199159622192,2.8350000381469727,61.7400016784668,-195.94749450683594
15.4525539,0.40113598108291626,-1.1184959411621094,-0.09174399822950363,6.527500152587891,-5.162499904632568,-116.84750366210938
15.4634898,0.4294399917125702,-1.1089799404144287,-0.12004800140857697,8.942500114440918,2.047499895095825,-130.04249572753906
15.4947298,0.3852759897708893,-1.0831159353256226,-0.1273680031299591,27.877500534057617,27.020000457763672,-140.4550018310547
15.517610966666666,0.43017199635505676,-0.9757559895515442,-0.0924759954214096,37.869998931884766,66.0625,-127.47000122070312
15.540492133333334,0.5302119851112366,-0.907435953617096,-0.02659599855542183,26.512500762939453,115.0625,-126.9800033569336
15.5633733,0.5753520131111145,-0.9164639711380005,0.11955999583005905,30.1875,159.32000732421875,-122.81500244140625
15.5788891,0.8161799907684326,-0.8857199549674988,0.020495999604463577,27.825000762939453,188.44000244140625,-112.4375
15.6101799,0.5387519598007202,-0.7014999985694885,0.4374919831752777,26.792499542236328,176.0850067138672,-108.67500305175781
15.625842200000001,0.48726800084114075,-0.6817359924316406,-0.05148399993777275,56.97999954223633,129.41250610351562,-113.24250030517578
15.6415045,0.6051200032234192,-0.6612399816513062,-0.11687599867582321,64.75,40.82749938964844,-81.49749755859375
15.679039,0.7583519816398621,-0.6978399753570557,-0.20032399892807007,33.86249923706055,-12.932499885559082,-46.130001068115234
15.69463515,0.8022719621658325,-0.6702679991722107,0.22935999929904938,36.3650016784668,-12.302499771118164,-14.175000190734863
15.7102313,0.8132519721984863,-0.6434279680252075,0.26498398184776306,81.9000015258789,-20.264999389648438,3.2725000381469727
15.7413948,0.8796199560165405,-0.6317160129547119,0.33647599816322327,80.37750244140625,-12.600000381469727,-7.297500133514404
15.7592266,0.8386279940605164,-0.7000359892845154,0.33013200759887695,66.25499725341797,-17.53499984741211,-33.932498931884766
15.7770584,0.6087799668312073,-0.7054039835929871,0.2054480016231537,66.01000213623047,-44.64250183105469,-27.229999542236328
15.7948902,0.5038599967956543,-0.7129679918289185,-0.014639999717473984,81.98750305175781,-89.94999694824219,2.7125000953674316
15.81058075,0.6097559928894043,-0.6866160035133362,-0.10491999983787537,104.2300033569336,-147.73500061035156,21.315000534057617
15.8262713,0.7056480050086975,-0.6963759660720825,-0.14127600193023682,128.50250244140625,-157.6750030517578,16.065000534057617
15.84497715,0.6773439645767212,-0.615123987197876,-0.1861719936132431,140.54249572753906,-105.82250213623047,23.415000915527344
15.863683,0.6092680096626282,-0.4894639849662781,-0.1739719957113266,132.3874969482422,-44.72999954223633,40.14500045776367
15.8793006,0.5077639818191528,-0.4660399854183197,-0.11004399508237839,115.97250366210938,-33.82749938964844,46.11249923706055
15.894856,0.5099599957466125,-0.3496519923210144,-0.020739998668432236,113.38249969482422,-72.67749786376953,40.26750183105469
15.9104114,0.6129279732704163,-0.17299599945545197,0.0024399999529123306,96.98500061035156,-97.14250183105469,9.817500114440918
15.9417822,0.6871039867401123,-0.36575600504875183,-0.007807999849319458,90.0374984741211,-68.73999786376953,-36.17250061035156
15.96045995,0.6334239840507507,-0.5062999725341797,0.07002799957990646,101.98999786376953,-29.207500457763672,-58.88750076293945
15.9791377,0.5453400015830994,-0.7078439593315125,0.22667600214481354,123.86499786376953,-17.360000610351562,-66.4124984741211
16.0103881,0.6104879975318909,-0.6627039909362793,0.18592800199985504,126.50749969482422,-49.85750198364258,-42.70000076293945
16.028117866666665,0.7002800107002258,-0.4816559851169586,0.03855200111865997,118.30000305175781,-52.63999938964844,-20.545000076293945
16.045847633333334,0.6224439740180969,-0.16567599773406982,-0.20447199046611786,139.7550048828125,-63.087501525878906,-88.4625015258789
16.0635774,0.44139599800109863,-0.49605199694633484,-0.5053240060806274,109.95249938964844,-120.55750274658203,-97.5625
16.079220749999998,0.7888519763946533,-0.6326919794082642,-0.02757199853658676,87.90250396728516,-111.24749755859375,-3.0450000762939453
16.0948641,0.7239480018615723,-0.5275279879570007,0.2554679811000824,51.99250030517578,-9.677499771118164,28.332500457763672
16.1104728,0.9635559916496277,-0.2845039963722229,0.6536759734153748,31.552499771118164,89.28500366210938,-37.064998626708984
16.1260815,0.5529040098190308,-0.24570798873901367,-0.2727919816970825,14.734999656677246,234.4824981689453,-100.48500061035156
16.1638484,0.6871039867401123,-0.42163199186325073,0.048312000930309296,-2.8524999618530273,300.2650146484375,-148.2949981689453
16.1794593,0.4609159827232361,-0.5660799741744995,-0.029279999434947968,-37.502498626708984,329.0874938964844,-201.0050048828125
16.2107229,0.22252799570560455,-0.8476560115814209,0.22765199840068817,124.56500244140625,275.677490234375,-218.87249755859375
16.2263558,0.3774679899215698,0.03879600018262863,0.8598560094833374,308.5950012207031,159.65249633789062,-211.5225067138672
16.2419887,0.912559986114502,0.3601439893245697,0.9640439748764038,121.76499938964844,118.9124984741211,-287.2275085449219
16.264907933333333,1.104099988937378,0.2618120014667511,0.4065040051937103,-64.38249969482422,154.03500366210938,-291.44500732421875
16.287827166666666,0.6326919794082642,-0.005367999896407127,0.4787279963493347,-113.69750213623047,268.6075134277344,-186.6374969482422
16.3107464,0.18177999556064606,0.16957999765872955,0.7527399659156799,-134.1199951171875,245.6125030517578,-134.9774932861328
16.3420608,0.3752720057964325,-0.17812000215053558,1.0030839443206787,-120.45249938964844,81.53250122070312,-117.3550033569336
16.352958549999997,0.663923978805542,-0.06173199787735939,1.1358200311660767,-92.24250030517578,10.482500076293945,-80.81500244140625
16.3638563,0.7373679876327515,0.19227199256420135,0.8986519575119019,-115.32499694824219,56.50749969482422,-92.2249984741211
16.384651266666665,0.8259400129318237,0.11370399594306946,0.8530240058898926,-195.9300079345703,123.4625015258789,-172.91749572753906
16.405446233333333,0.5555880069732666,-0.3311080038547516,0.7761639952659607,-252.2100067138672,205.34500122070312,-233.34500122070312
16.4262412,0.36917200684547424,-0.3096359968185425,0.8964560031890869,-184.30999755859375,192.7624969482422,-191.3975067138672
16.44518785,0.313539981842041,-0.14981599152088165,1.1763240098953247,-107.36250305175781,114.15250396728516,-117.44249725341797
16.4641345,0.3694159984588623,-0.14151999354362488,1.1819360256195068,-65.02999877929688,25.532499313354492,-100.2925033569336
16.4797921,0.30280399322509766,0.1041879951953888,1.2373239994049072,-70.26249694824219,-25.270000457763672,-95.65499877929688
16.4954003,0.23082399368286133,-0.007807999849319458,1.2802679538726807,-109.69000244140625,-39.584999084472656,-81.98750305175781
16.5110085,0.1378600001335144,-0.030499998480081558,1.1455799341201782,-112.19249725341797,-55.96500015258789,-38.657501220703125
16.542145,0.1983719915151596,-0.152988001704216,1.2614799737930298,-106.48750305175781,-70.27999877929688,2.065000057220459
16.561161400000003,0.25449198484420776,-0.240339994430542,1.286855936050415,-50.627498626708984,-44.397499084472656,37.15250015258789
16.5801778,0.04440800100564957,0.14005599915981293,0.9135359525680542,48.58000183105469,27.790000915527344,93.60749816894531
16.6113522,0.5021519660949707,-0.015859998762607574,0.8454599976539612,16.537500381469727,23.170000076293945,61.75749969482422
16.62702465,0.34184399247169495,-0.140299990773201,0.7925119996070862,2.572499990463257,4.235000133514404,39.74250030517578
16.6426971,0.4567679762840271,-0.024156000465154648,0.8693720102310181,-20.790000915527344,-31.377500534057617,38.39500045776367
16.6645491,0.6641680002212524,-0.5275279879570007,1.154363989830017,-27.15999984741211,-15.27750015258789,-1.3650000095367432
16.68018505,0.570472002029419,-0.4909279942512512,1.006500005722046,50.400001525878906,69.4574966430664,0.017500000074505806
16.695821,0.44017598032951355,-0.4243159890174866,0.8903560042381287,96.89749908447266,113.48750305175781,-4.637499809265137
16.71142205,0.39137598872184753,-0.4252919852733612,0.7705519795417786,101.3949966430664,108.08000183105469,-4.357500076293945
16.7270231,0.3757599890232086,-0.2520520091056824,0.8047119975090027,90.52750396728516,72.60749816894531,-4.042500019073486
16.7644715,0.30329200625419617,-0.2210640013217926,0.8576599955558777,59.220001220703125,33.42499923706055,-17.325000762939453
16.7799783,0.29304400086402893,-0.2205759882926941,0.8574159741401672,39.79500198364258,0.12250000238418579,-30.065000534057617
16.8112266,0.29475200176239014,-0.17445999383926392,0.8661999702453613,24.622499465942383,-16.887500762939453,-33.022499084472656
16.8268925,0.25742000341415405,-0.18641600012779236,0.8134959936141968,5.162499904632568,-15.364999771118164,-27.33500099182129
16.8425584,0.31378400325775146,-0.16103999316692352,0.798367977142334,-5.722499847412109,-16.274999618530273,-15.487500190734863
16.8800731,0.41919198632240295,-0.19275999069213867,0.8327719569206238,-17.114999771118164,-15.890000343322754,-16.747499465942383
16.8957043,0.4289519786834717,-0.1937360018491745,0.8561959862709045,-22.540000915527344,-9.15250015258789,-27.912500381469727
16.9113355,0.4789719879627228,-0.12809999287128448,0.8300879597663879,-36.81999969482422,1.9249999523162842,-34.54500198364258
16.9426208,0.5233799815177917,-0.15567199885845184,0.6578239798545837,-73.09750366210938,13.335000038146973,-50.34749984741211
16.9534998,0.5248439908027649,-0.2669360041618347,0.55485600233078,-116.0250015258789,-6.527500152587891,-75.73999786376953
16.9643788,0.6368399858474731,-0.41406798362731934,0.6212239861488342,-153.00250244140625,-39.11249923706055,-95.58499908447266
16.9956336,0.5651040077209473,-0.5043479800224304,0.6136599779129028,-167.3874969482422,-29.27750015258789,-98.05249786376953
17.01120235,0.5285040140151978,-0.4079679846763611,0.5655919909477234,-158.8125,-15.417500495910645,-88.97000122070312
17.0267711,0.6578239798545837,-0.4126040041446686,0.6485520005226135,-156.4499969482422,-0.875,-96.93250274658203
17.04554655,0.5148400068283081,-0.452131986618042,0.6307399868965149,-145.2675018310547,36.41749954223633,-116.4800033569336
17.064322,0.4945879876613617,-0.2408279925584793,0.5592479705810547,-146.19500732421875,40.040000915527344,-129.79750061035156
17.0799248,0.38942399621009827,-0.5716919898986816,0.27889198064804077,-235.3050079345703,13.107500076293945,-121.78250122070312
17.0955485,0.29304400086402893,-0.8730319738388062,0.500931978225708,-307.3349914550781,-25.200000762939453,-73.1500015258789
17.1111722,0.44017598032951355,-0.8718119859695435,1.0460280179977417,-258.3525085449219,-2.5374999046325684,-24.780000686645508
17.1424334,0.3777119815349579,-0.6988160014152527,0.9823439717292786,-120.95999908447266,94.9375,-11.444999694824219
17.1797054,0.3276920020580292,-0.5577839612960815,0.8552199602127075,-38.79750061035156,147.0175018310547,-19.389999389648438
17.19533075,0.16152799129486084,-0.6417199969291687,0.6417199969291687,-36.24250030517578,131.14500427246094,-37.834999084472656
17.2109561,0.1117519959807396,-0.8176440000534058,0.7737239599227905,-82.56500244140625,69.42250061035156,-60.04249954223633
17.22658255,0.1378600001335144,-1.0809199810028076,1.0111359357833862,-123.0250015258789,42.227500915527344,-55.807498931884766
17.242209,0.16299200057983398,-1.0287039279937744,1.0289479494094849,-77.89250183105469,68.3550033569336,-14.017499923706055
17.2644644,0.04001599922776222,-0.6766119599342346,0.602679967880249,-64.17250061035156,147.875,40.86249923706055
17.28011095,-0.04636000096797943,-0.8910880088806152,0.6336680054664612,-96.3550033569336,143.81500244140625,52.48250198364258
17.2957575,-0.1554279923439026,-0.8813279867172241,0.6397680044174194,-78.92500305175781,86.36250305175781,97.125
17.3269427,-0.10443200170993805,-0.5475360155105591,0.7956839799880981,-65.5374984741211,13.125,138.60000610351562
17.34589695,-0.017324000597000122,-0.4126040041446686,0.8117879629135132,-110.65250396728516,7.875,95.65499877929688
17.3648512,-0.045871999114751816,-0.5682759881019592,0.6922279596328735,-254.1699981689453,40.442501068115234,58.95750045776367
17.3804686,-0.27718400955200195,-0.8386279940605164,0.5441200137138367,-369.6524963378906,-3.8324999809265137,56.38500213623047
17.4117174,-0.18470799922943115,-1.248304009437561,0.6356199979782104,-283.2200012207031,-96.11000061035156,12.302499771118164
17.427315450000002,-0.0983319953083992,-0.9506239891052246,0.5760840177536011,-170.57249450683594,-91.66500091552734,-18.532499313354492
17.4429135,-0.02659599855542183,-0.24692799150943756,0.34013599157333374,-216.9824981689453,-18.40999984741211,-25.270000457763672
17.4804184,-0.6863719820976257,-0.8769359588623047,-0.0924759954214096,-436.74749755859375,-11.40999984741211,16.4325008392334
17.4959886,-0.513375997543335,-1.6513919830322266,-0.23350799083709717,-392.5950012207031,-148.9949951171875,24.46500015258789
17.5115588,0.29597198963165283,-1.1702239513397217,0.1105320006608963,-165.6374969482422,-240.67750549316406,-5.985000133514404
17.5428724,0.16591998934745789,-0.6788079738616943,-0.25034400820732117,-179.3574981689453,-243.84500122070312,25.549999237060547
17.55375515,-0.18641600012779236,-0.8112999796867371,-0.31671199202537537,-226.3975067138672,-219.57249450683594,26.862499237060547
17.5646379,0.054655998945236206,-1.267091989517212,-0.18714798986911774,-242.1125030517578,-161.54249572753906,-35.279998779296875
17.595885,-0.10589599609375,-1.09116792678833,-0.4172399938106537,-192.3074951171875,-110.86250305175781,-54.162498474121094
17.61149475,-0.13688400387763977,-0.6939359903335571,-0.5848680138587952,-136.11500549316406,-98.94499969482422,-24.517499923706055
17.6271045,0.1390800029039383,-0.6873480081558228,-0.6412320137023926,-150.62249755859375,-103.72250366210938,7.630000114440918
17.6645107,0.6361079812049866,-0.9452559947967529,-0.4618919789791107,-160.3874969482422,-43.64500045776367,46.63750076293945
17.672331800000002,0.5282599925994873,-1.0467599630355835,-0.7746999859809875,-142.34500122070312,24.325000762939453,48.720001220703125
17.6801529,0.14932799339294434,-1.0557879209518433,-0.37502798438072205,-57.994998931884766,43.73250198364258,8.34749984741211
17.7113938,0.10101599991321564,-1.2861239910125732,-0.561199963092804,-60.147499084472656,26.477500915527344,-8.032500267028809
17.7459446,-0.3835679888725281,-1.2314679622650146,-1.3005199432373047,-64.36499786376953,22.014999389648438,48.19499969482422
17.7804954,-0.23423999547958374,0.08808399736881256,-1.0740879774093628,-88.86499786376953,-91.0,91.31500244140625
17.790907066666666,0.09125600010156631,0.06124399974942207,-0.7764079570770264,-246.27749633789062,-194.4949951171875,140.0
17.801318733333332,-0.0012199999764561653,-0.40869998931884766,-0.827892005443573,-402.010009765625,-192.90249633789062,187.33749389648438
17.8117304,-0.047335997223854065,-0.6553840041160583,-0.8661999702453613,-373.2749938964844,-174.8249969482422,204.83749389648438
17.82732025,-0.14591199159622192,-0.3945479989051819,-0.8566839694976807,-305.1300048828125,-98.05249786376953,172.8300018310547
17.8429101,-0.21423199772834778,-0.10540799796581268,-0.6846640110015869,-182.8574981689453,-6.40500020980835,96.61750030517578
17.8653386,-0.3142719864845276,-0.27547600865364075,-1.0496879816055298,-18.479999542236328,116.0425033569336,54.35499954223633
17.88097085,-0.5297240018844604,-0.5248439908027649,-1.4193480014801025,42.45500183105469,98.22750091552734,11.024999618530273
17.8966031,-0.3974759876728058,-0.39528000354766846,-1.5408599376678467,104.19499969482422,32.095001220703125,-42.3849983215332
17.9277492,-0.19983600080013275,0.16860400140285492,-1.0235799551010132,207.5850067138672,-59.88500213623047,-55.282501220703125
17.94668305,-0.048312000930309296,0.06417199969291687,-0.6341559886932373,147.82249450683594,-123.97000122070312,-83.73750305175781
17.9656169,-0.5714479684829712,-1.543787956237793,-0.782263994216919,101.01000213623047,-101.6050033569336,-107.46749877929688
17.98899445,-0.7581079602241516,-1.1141040325164795,-0.8086159825325012,94.81500244140625,23.607500076293945,-1.2949999570846558
18.012372,-0.6039000153541565,-0.2683999836444855,-0.7644519805908203,10.46500015258789,122.22000122070312,50.8025016784668
18.0436313,-0.2920680046081543,-0.6451359987258911,-0.9210999608039856,-69.28250122070312,145.09249877929688,55.94750213623047
18.062632200000003,-0.4823879897594452,-0.4352959990501404,-0.9852719902992249,-116.27000427246094,176.5399932861328,95.83000183105469
18.0816331,-0.12151199579238892,-0.31963998079299927,-0.9689239859580994,-243.0050048828125,162.5749969482422,184.8175048828125
18.112884,-0.6351320147514343,0.21862399578094482,-1.2668479681015015,-319.6025085449219,102.77750396728516,305.93499755859375
18.128397,-0.632203996181488,0.08832799643278122,-0.9184159636497498,-136.0625,-11.34000015258789,192.65750122070312
18.1441255,-0.5446079969406128,-0.2252119928598404,-0.818619966506958,-82.47750091552734,-124.61750030517578,58.92250061035156
18.1550521,-0.4828760027885437,-0.31671199202537537,-0.9625799655914307,23.677499771118164,-141.3300018310547,-139.16000366210938
18.1659787,-0.3001199960708618,-0.21837998926639557,-1.2529399394989014,191.625,-41.02000045776367,-268.99249267578125
18.1972268,-0.2437559962272644,-0.460671991109848,-0.9364719986915588,310.7300109863281,58.57250213623047,-283.81500244140625
18.2128551,-0.21911199390888214,-0.3642919957637787,-0.6807599663734436,269.4649963378906,61.42499923706055,-310.7650146484375
18.2284834,-0.18397599458694458,-0.2542479932308197,-0.6580680012702942,153.52749633789062,23.065000534057617,-331.1875
18.2657106,0.08954799920320511,-0.05929199978709221,-0.4799479842185974,68.09249877929688,22.469999313354492,-341.8974914550781
18.273600799999997,0.33427998423576355,0.06075599789619446,-0.5953599810600281,-43.24250030517578,49.9275016784668,-323.9075012207031
18.281491,0.5563200116157532,-0.05782799795269966,-0.974291980266571,-82.05750274658203,126.33250427246094,-273.6474914550781
18.302302266666665,0.35745999217033386,-0.09125600010156631,-0.9542839527130127,-5.215000152587891,212.10000610351562,-244.125
18.323113533333334,0.3823480010032654,0.04636000096797943,-0.7112599611282349,81.7249984741211,204.83749389648438,-297.9549865722656
18.3439248,0.44310399889945984,-0.21227999031543732,-0.7254120111465454,62.247501373291016,111.125,-295.4525146484375
18.381701,0.48433998227119446,-0.4870239794254303,-0.9347639679908752,-1.4350000619888306,13.5625,-212.32749938964844
18.3973254,0.38478800654411316,-0.8998720049858093,-0.8874279856681824,12.914999961853027,-0.07000000029802322,-154.6824951171875
18.4129498,0.10955599695444107,-0.7193120121955872,-1.0955599546432495,87.32499694824219,-38.39500045776367,-86.9574966430664
18.428576,0.1373720020055771,-0.8125199675559998,-0.958187997341156,253.01499938964844,-133.49000549316406,-107.37999725341797
18.4441996,0.38942399621009827,-0.5436319708824158,-0.41455599665641785,405.7724914550781,-185.2899932861328,-130.47999572753906
18.462060966666666,0.6561160087585449,-0.5982879996299744,-0.2193560004234314,320.37249755859375,-27.684999465942383,-68.31999969482422
18.479922333333334,0.627079963684082,-0.4147999882698059,-0.1395680010318756,239.19000244140625,59.08000183105469,-59.32500076293945
18.4977837,0.5306999683380127,-0.5707159638404846,-0.30866000056266785,177.57249450683594,26.72249984741211,5.337500095367432
18.5290258,0.37331998348236084,-0.6117079854011536,-0.3164680004119873,141.7675018310547,9.3100004196167,23.642499923706055
18.54778495,0.27303600311279297,-0.9006040096282959,-0.41626399755477905,206.3074951171875,23.922500610351562,-31.71000099182129
18.5665441,0.2781600058078766,-0.7534719705581665,0.08735200017690659,281.0849914550781,-11.829999923706055,-85.76750183105469
18.58996725,0.3869839906692505,-0.8527799844741821,0.37502798438072205,159.4949951171875,-34.772499084472656,-72.0824966430664
18.6133904,0.2681559920310974,-1.230247974395752,0.2176479995250702,39.23500061035156,-69.93000030517578,-66.02750396728516
18.663359149999998,0.2769399881362915,-1.4808359146118164,0.0651479959487915,-3.5174999237060547,-115.1675033569336,-84.68250274658203
18.7133279,0.346235990524292,-1.5337839126586914,0.00878399983048439,5.494999885559082,-136.5175018310547,-110.72250366210938
18.72111645,0.38600799441337585,-1.3295559883117676,-0.13810399174690247,17.219999313354492,-139.87750244140625,-119.27999877929688
18.728905,0.4333440065383911,-1.0335839986801147,-0.20569199323654175,54.14500045776367,-149.8350067138672,-149.46749877929688
18.747674500000002,0.6048759818077087,-0.8039799928665161,-0.29523998498916626,66.27249908447266,-173.4250030517578,-192.62249755859375
18.766444,0.8776679635047913,-0.7249239683151245,-0.5072759985923767,49.61249923706055,-187.96749877929688,-182.6824951171875
18.79768645,0.6775879859924316,-0.835211992263794,-0.4909279942512512,59.95500183105469,-146.125,-120.68000030517578
18.8289289,0.6041439771652222,-0.7651839852333069,-0.44066399335861206,66.09750366210938,-105.85749816894531,-115.6050033569336
