Time (seconds),acc_x,acc_y,acc_z,gyro_x,gyro_y,gyro_z
0.02007760949388025,0.0727119967341423,-0.9957639575004578,-0.0241560004651546,0.6825000047683716,0.6299999952316284,0.875
0.0401552189877605,0.0739319995045661,-0.993079960346222,-0.023667998611927,-0.2800000011920929,0.5074999928474426,1.347499966621399
0.06023282848164074,0.0705159977078437,-0.9977160096168518,-0.0243999995291233,-2.0824999809265137,-0.3499999940395355,1.7324999570846558
0.080310437975521,0.0685639977455139,-1.0055240392684937,-0.0263519994914531,-2.712500095367432,-0.5600000023841858,1.924999952316284
0.10038804746940125,0.071492001414299,-1.007964015007019,-0.0273279994726181,-2.694999933242798,-0.7175000309944153,2.065000057220459
0.1204656569632815,0.0700279995799064,-1.007475972175598,-0.0292799994349479,-2.0999999046325684,-0.6650000214576721,2.3975000381469727
0.14054326645716175,0.0700279995799064,-0.9989359974861144,-0.0314759984612464,-1.784999966621399,-0.5249999761581421,2.677500009536743
0.160620875951042,0.0741759985685348,-0.9935680031776428,-0.0341599993407726,-2.2049999237060547,-0.3849999904632568,2.9574999809265137
0.18069848544492223,0.0783239975571632,-0.9938119649887084,-0.0326960012316703,-2.5199999809265137,-0.3849999904632568,2.870000123977661
0.20077609493880247,0.0773480013012886,-0.9960079789161682,-0.0292799994349479,-2.6600000858306885,-0.3849999904632568,2.572499990463257
0.2208537044326827,0.0722239986062049,-1.0043039321899414,-0.0346480011940002,-2.817500114440918,-0.4375,2.309999942779541
0.24093131392656295,0.0670999959111213,-1.010892033576965,-0.0366000011563301,-2.5899999141693115,-0.2275000065565109,1.837499976158142
0.2610089234204432,0.0644159987568855,-1.0150399208068848,-0.0351359993219375,-1.8025000095367432,0.1924999952316284,1.2074999809265137
0.28108653291432345,0.0605119988322258,-1.013819932937622,-0.0356239974498748,-0.8575000166893005,0.5249999761581421,0.612500011920929
0.3011641424082037,0.0561200007796287,-1.0077199935913086,-0.0278159994632005,-0.3499999940395355,0.6474999785423279,0.5600000023841858
0.321241751902084,0.057583998888731,-1.0001559257507324,-0.0275719985365867,-0.3675000071525574,0.2975000143051147,0.6650000214576721
0.34131936139596425,0.0641719996929168,-0.9882000088691713,-0.0256199985742568,-1.0325000286102295,-0.0525000020861625,0.4900000095367431
0.3613969708898445,0.0685639977455139,-0.9720959663391112,-0.0109799997881054,-2.0824999809265137,-0.7175000309944153,0.5074999928474426
0.3814745803837248,0.0609999969601631,-1.0001559257507324,-0.0187879987061023,-3.902499914169312,-1.6974999904632568,1.5924999713897705
0.40155218987760505,0.052216000854969,-1.0289479494094849,-0.0261080004274845,-4.322500228881836,-1.4874999523162842,2.2049999237060547
0.4216297993714853,0.0448959991335868,-1.0335839986801147,-0.033671997487545,-3.377500057220459,-0.8050000071525574,2.240000009536743
0.4417074088653656,0.0490439981222152,-1.017967939376831,-0.0348920002579689,-1.837499976158142,-0.8575000166893005,1.680000066757202
0.46178501835924585,0.0551439970731735,-1.0040600299835205,-0.0322079993784427,-1.347499966621399,-1.225000023841858,1.2949999570846558
0.4818626278531261,0.061243999749422,-0.9862479567527772,-0.0302559994161129,-1.0674999952316284,-1.8200000524520876,1.0149999856948853
0.5019402373470063,0.05197199806571,-0.97599995136261,-0.0363559983670711,-1.4350000619888306,-2.625,1.3650000095367432
0.5220178468408866,0.0485559999942779,-0.9711199998855592,-0.0412359982728958,-2.922499895095825,-4.007500171661377,1.837499976158142
0.5420954563347669,0.0497759990394115,-0.977463960647583,-0.0458719991147518,-4.952499866485596,-5.320000171661377,1.8200000524520876
0.5621730658286471,0.0446520000696182,-0.9896639585494996,-0.0485559999942779,-6.667500019073486,-5.617499828338623,1.75
0.5822506753225274,0.0439199991524219,-1.012355923652649,-0.0524599999189376,-7.595000267028809,-5.599999904632568,1.924999952316284
0.6023282848164077,0.0431879982352256,-1.0245559215545654,-0.0509959980845451,-6.632500171661377,-5.320000171661377,2.117500066757202
0.6224058943102879,0.0497759990394115,-1.0269960165023804,-0.0556319989264011,-4.567500114440918,-4.882500171661377,2.5374999046325684
0.6424835038041682,0.0524599999189376,-1.016503930091858,-0.0605119988322258,-2.5899999141693115,-4.550000190734863,2.8350000381469727
0.6625611132980485,0.0424560010433197,-1.010159969329834,-0.0739319995045661,-2.940000057220459,-5.162499904632568,3.377500057220459
0.6826387227919287,0.047580000013113,-1.0003999471664429,-0.0712479948997497,-2.992500066757202,-6.457499980926514,3.5350000858306885
0.702716332285809,0.0573399998247623,-0.9925919771194458,-0.0680759996175766,-3.622499942779541,-6.667500019073486,4.567500114440918
0.7227939417796893,0.047580000013113,-0.9938119649887084,-0.0663679987192154,-4.09499979019165,-5.862500190734863,5.197500228881836
0.7428715512735695,0.0358680002391338,-0.9962520003318788,-0.0609999969601631,-4.007500171661377,-5.232500076293945,4.847499847412109
0.7629491607674498,0.0397720001637935,-0.9906399846076964,-0.0583159998059272,-4.269999980926514,-4.392499923706055,4.550000190734863
0.78302677026133,0.0678320005536079,-0.977463960647583,-0.0546559989452362,-5.53000020980835,-4.427500247955322,3.990000009536743
0.8031043797552103,0.0641719996929168,-0.9906399846076964,-0.0570959970355033,-6.807499885559082,-5.722499847412109,2.8350000381469727
0.8231819892490906,0.047335997223854,-0.9911279678344728,-0.0614879988133907,-5.985000133514404,-6.212500095367432,1.0149999856948853
0.8432595987429709,0.0434319972991943,-0.993079960346222,-0.0668559968471527,-5.355000019073486,-5.652500152587891,-0.2800000011920929
0.8633372082368511,0.05197199806571,-0.9928359985351562,-0.0861319974064827,-5.599999904632568,-4.619999885559082,-0.8400000333786011
0.8834148177307314,0.0639280006289482,-1.0086959600448608,-0.1049199998378753,-6.632500171661377,-3.009999990463257,-0.1749999970197677
0.9034924272246116,0.0700279995799064,-1.0235799551010132,-0.1032119989395141,-6.474999904632568,-2.6424999237060547,0.1574999988079071
0.9235700367184919,0.0607559978961944,-1.0050359964370728,-0.0878399983048439,-4.21750020980835,-3.150000095367432,-0.7524999976158142
0.9436476462123722,0.0514839999377727,-0.977952003479004,-0.0797879993915557,-3.692500114440918,-3.0450000762939453,-1.0850000381469729
0.9637252557062524,0.0541680008172988,-0.9801479578018188,-0.0905239954590797,-5.144999980926514,-2.1875,-0.2800000011920929
0.9838028652001327,0.0629519969224929,-0.9999119639396667,-0.1029679998755455,-6.300000190734863,-0.6474999785423279,0.4550000131130218
1.0038804746940129,0.075883999466896,-1.0172359943389893,-0.1083360016345977,-6.195000171661377,1.1549999713897705,0.5600000023841858
1.023958084187893,0.0844239965081214,-1.0213840007781982,-0.1015039980411529,-4.917500019073486,2.765000104904175,0.3149999976158142
1.0440356936817732,0.0814960002899169,-1.006500005722046,-0.1039439961314201,-2.940000057220459,3.972500085830689,-0.6474999785423279
1.0641133031756533,0.0695400014519691,-0.9889319539070128,-0.1085800006985664,-1.8725000619888303,5.215000152587891,-1.715000033378601
1.0841909126695335,0.0614879988133907,-0.9801479578018188,-0.114436000585556,-1.9774999618530276,6.054999828338623,-2.2049999237060547
1.1042685221634136,0.052947998046875,-0.9801479578018188,-0.1139479950070381,-3.0274999141693115,6.632500171661377,-2.065000057220459
1.1243461316572938,0.0539239980280399,-0.9994239807128906,-0.1097999960184097,-4.252500057220459,6.929999828338623,-1.2424999475479126
1.144423741151174,0.0617319978773593,-1.0055240392684937,-0.1078479960560798,-4.042500019073486,7.210000038146973,-0.7350000143051147
1.1645013506450541,0.0661239996552467,-1.009671926498413,-0.1090679988265037,-3.289999961853028,6.982500076293945,-0.6299999952316284
1.1845789601389343,0.0649039968848228,-0.9977160096168518,-0.1080919951200485,-2.1875,6.247499942779541,-1.3125
1.2046565696328144,0.0558759979903698,-0.9813680052757264,-0.1019919961690902,-1.9424999952316284,5.477499961853027,-2.0299999713897705
1.2247341791266946,0.0541680008172988,-0.990395963191986,-0.10589599609375,-3.132499933242798,5.039999961853027,-1.8899999856948853
1.2448117886205747,0.0514839999377727,-1.010892033576965,-0.1134599968791008,-3.815000057220459,5.267499923706055,-1.3650000095367432
1.2648893981144549,0.0561200007796287,-1.0035719871520996,-0.1141919940710067,-1.680000066757202,6.037499904632568,-0.0700000002980232
1.284967007608335,0.0634399950504303,-0.9979599714279176,-0.1127279996871948,-1.715000033378601,5.897500038146973,0.3675000071525574
1.3050446171022152,0.0649039968848228,-0.9882000088691713,-0.1105320006608963,-1.3125,6.019999980926514,0.1400000005960464
1.3251222265960954,0.0590479969978332,-0.9842959642410278,-0.1090679988265037,-1.6100000143051147,6.002500057220459,0.1050000041723251
1.3451998360899755,0.0551439970731735,-0.9894199967384338,-0.1117519959807396,-2.5199999809265137,5.880000114440918,0.332500010728836
1.3652774455838557,0.0483120009303092,-1.0021079778671265,-0.1149239987134933,-3.307500123977661,5.512499809265137,0.4200000166893005
1.3853550550777358,0.0463600009679794,-1.0067440271377563,-0.1137039959430694,-2.625,5.127500057220459,0.0175000000745058
1.405432664571616,0.0434319972991943,-0.9969840049743652,-0.1163880005478859,-1.5924999713897705,4.777500152587891,-0.2800000011920929
1.4255102740654961,0.0470919981598854,-0.995519995689392,-0.1163880005478859,-1.399999976158142,4.375,0.1749999970197677
1.4455878835593763,0.0546559989452362,-0.9967399835586548,-0.1129719987511634,-0.9275000095367432,3.7799999713897705,0.5774999856948853
1.4656654930532564,0.0600240007042884,-0.995519995689392,-0.1137039959430694,-0.5074999928474426,3.3600001335144043,0.4200000166893005
1.4857431025471366,0.0629519969224929,-0.9933239817619324,-0.1198039948940277,-0.3149999976158142,3.237499952316284,0.1400000005960464
1.5058207120410168,0.062219999730587,-0.9943000078201294,-0.1227319985628128,-0.4550000131130218,3.3949999809265137,0.0175000000745058
1.525898321534897,0.0634399950504303,-0.9969840049743652,-0.1239520013332367,-0.699999988079071,3.6050000190734863,0.1225000023841857
1.545975931028777,0.0602679997682571,-1.0001559257507324,-0.1202920004725456,-0.5950000286102295,3.674999952316284,0.1050000041723251
1.5660535405226572,0.0561200007796287,-0.993079960346222,-0.1173639968037605,-0.2450000047683715,3.5,-0.0525000020861625
1.5861311500165374,0.0558759979903698,-0.9977160096168518,-0.115167997777462,-0.5774999856948853,3.255000114440918,0.2450000047683715
1.6062087595104175,0.05197199806571,-0.998691976070404,-0.1198039948940277,-0.5249999761581421,2.9049999713897705,0.4200000166893005
1.6262863690042977,0.0514839999377727,-0.9921039938926696,-0.1239520013332367,-0.2275000065565109,2.5899999141693115,0.4375
1.6463639784981778,0.0536799989640712,-0.98990797996521,-0.1193159967660904,-0.0350000001490116,2.380000114440918,0.2450000047683715
1.666441587992058,0.057583998888731,-0.9913719892501832,-0.1146799996495246,-0.1050000041723251,2.1700000762939453,0.2100000083446502
1.6865191974859381,0.0597799979150295,-0.9989359974861144,-0.1171199977397918,-0.4724999964237213,2.0299999713897705,0.5074999928474426
1.7065968069798183,0.0607559978961944,-1.0047919750213623,-0.1185839995741844,-0.3499999940395355,1.784999966621399,0.6825000047683716
1.7266744164736985,0.057583998888731,-0.9964959621429444,-0.1198039948940277,0.5074999928474426,1.4874999523162842,0.332500010728836
1.7467520259675786,0.0536799989640712,-0.987223982810974,-0.1212679967284202,0.5425000190734863,1.1024999618530271,-0.0175000000745058
1.7668296354614588,0.052216000854969,-0.9877119660377502,-0.1246839985251426,-0.2275000065565109,0.8224999904632568,0.0350000001490116
1.786907244955339,0.0544119998812675,-0.9923479557037354,-0.1234639957547187,-0.7350000143051147,0.9449999928474426,0.4200000166893005
1.806984854449219,0.0561200007796287,-0.998691976070404,-0.1227319985628128,-0.6825000047683716,1.0674999952316284,0.8575000166893005
1.8270624639430992,0.0583159998059272,-0.9972279667854308,-0.1178519949316978,0.1400000005960464,1.0325000286102295,0.7350000143051147
1.8471400734369794,0.0563639998435974,-0.9943000078201294,-0.1161440014839172,0.4200000166893005,0.5774999856948853,0.2100000083446502
1.8672176829308595,0.0546559989452362,-0.9947879910469056,-0.1176079958677291,-0.262499988079071,0.3675000071525574,-0.0700000002980232
1.8872952924247397,0.0568519979715347,-0.9945439696311952,-0.1183400005102157,-0.1574999988079071,0.5425000190734863,0.1050000041723251
1.9073729019186199,0.0568519979715347,-0.9962520003318788,-0.1161440014839172,-0.1400000005960464,0.4724999964237213,0.4200000166893005
1.9274505114125,0.0568519979715347,-0.9979599714279176,-0.1166319996118545,-0.0350000001490116,0.1749999970197677,0.5600000023841858
1.9475281209063802,0.0558759979903698,-0.9984479546546936,-0.1180959939956665,0.1400000005960464,0.1400000005960464,0.5074999928474426
1.9676057304002603,0.057583998888731,-1.0016199350357056,-0.118827998638153,0.3149999976158142,0.1050000041723251,0.262499988079071
1.9876833398941405,0.056607998907566,-0.998203992843628,-0.1198039948940277,0.5600000023841858,0.1574999988079071,-0.0700000002980232
2.007760949388021,0.0585599988698959,-0.9969840049743652,-0.118827998638153,0.4900000095367431,0.4724999964237213,-0.1225000023841857
2.0278385588819012,0.0624639987945556,-0.9967399835586548,-0.1183400005102157,0.699999988079071,0.8924999833106995,-0.0874999985098838
2.0479161683757816,0.0619760006666183,-0.9933239817619324,-0.114436000585556,1.1024999618530271,1.0499999523162842,0.1050000041723251
2.067993777869662,0.0607559978961944,-0.9969840049743652,-0.1158999949693679,1.0499999523162842,0.9975000023841858,0.3675000071525574
2.0880713873635424,0.0605119988322258,-0.9989359974861144,-0.1166319996118545,0.9275000095367432,1.0499999523162842,0.2975000143051147
2.1081489968574227,0.0570959970355033,-0.9972279667854308,-0.1185839995741844,0.962499976158142,1.1200000047683716,-0.2100000083446502
2.128226606351303,0.0539239980280399,-0.9964959621429444,-0.1207799986004829,0.8924999833106995,1.2949999570846558,-0.7175000309944153
2.1483042158451835,0.0563639998435974,-0.9972279667854308,-0.1210239976644516,0.875,1.6449999809265137,-0.8400000333786011
2.168381825339064,0.0568519979715347,-0.9964959621429444,-0.1234639957547187,1.1549999713897705,1.9774999618530276,-0.612500011920929
2.1884594348329443,0.0556319989264011,-0.9969840049743652,-0.1251720041036605,1.277500033378601,2.0299999713897705,-0.2450000047683715
2.2085370443268246,0.0561200007796287,-0.9957639575004578,-0.1229759976267814,1.5049999952316284,1.8899999856948853,-0.2800000011920929
2.228614653820705,0.0534359999001026,-0.9901520013809204,-0.1215119957923889,1.9424999952316284,1.7675000429153442,-0.8400000333786011
2.2486922633145854,0.0470919981598854,-0.9869799613952636,-0.1190719977021217,1.9424999952316284,1.715000033378601,-1.2424999475479126
2.2687698728084658,0.046604000031948,-0.990884006023407,-0.1185839995741844,1.4524999856948853,1.5750000476837158,-1.1725000143051147
2.288847482302346,0.0495319999754428,-0.9962520003318788,-0.1198039948940277,1.1375000476837158,1.4874999523162842,-0.8050000071525574
2.3089250917962265,0.0505079999566078,-0.998691976070404,-0.1261480003595352,1.5049999952316284,1.5225000381469729,-0.2800000011920929
2.329002701290107,0.0536799989640712,-1.0016199350357056,-0.1263919919729232,1.6974999904632568,1.3825000524520874,0.3149999976158142
2.3490803107839873,0.0553879998624324,-1.000643968582153,-0.1224879994988441,2.0299999713897705,0.9975000023841858,0.2800000011920929
2.3691579202778676,0.0514839999377727,-0.9864919781684875,-0.1193159967660904,2.450000047683716,0.4724999964237213,-0.262499988079071
2.389235529771748,0.0470919981598854,-0.9796599745750428,-0.1180959939956665,1.75,0.262499988079071,-0.332500010728836
2.4093131392656284,0.042943999171257,-0.990395963191986,-0.1215119957923889,0.7175000309944153,0.3499999940395355,0.1400000005960464
2.429390748759509,0.0446520000696182,-1.0008879899978638,-0.1212679967284202,0.4900000095367431,0.7524999976158142,0.5249999761581421
2.449468358253389,0.0512399971485137,-1.0135760307312012,-0.1173639968037605,0.8224999904632568,0.7350000143051147,0.3849999904632568
2.4695459677472695,0.0517279990017414,-0.9901520013809204,-0.1163880005478859,3.237499952316284,-0.4375,-0.6474999785423279
2.48962357724115,0.0490439981222152,-0.9833199977874756,-0.1173639968037605,3.3424999713897705,-0.875,-0.7175000309944153
2.5097011867350303,0.046604000031948,-0.9852719902992249,-0.1168759986758232,3.115000009536743,-0.9800000190734864,-0.7350000143051147
2.5297787962289107,0.0497759990394115,-0.9994239807128906,-0.1168759986758232,2.6600000858306885,-1.1024999618530271,-0.8050000071525574
2.549856405722791,0.0524599999189376,-1.0130879878997805,-0.1141919940710067,2.852499961853028,-1.3300000429153442,-1.2424999475479126
2.5699340152166714,0.0514839999377727,-1.0169919729232788,-0.1100439950823783,3.867500066757202,-1.5049999952316284,-1.9424999952316284
2.590011624710552,0.0573399998247623,-1.0089399814605713,-0.1088239997625351,5.215000152587891,-1.4350000619888306,-2.6600000858306885
2.610089234204432,0.0617319978773593,-0.9938119649887084,-0.10589599609375,6.142499923706055,-1.1024999618530271,-2.9749999046325684
2.6301668436983126,0.0609999969601631,-0.9884439706802368,-0.1017479971051216,5.897500038146973,-0.9449999928474426,-2.555000066757202
2.650244453192193,0.0588039979338645,-0.994055986404419,-0.0985759943723678,5.197500228881836,-0.9975000023841858,-2.240000009536743
2.6703220626860733,0.0556319989264011,-0.9977160096168518,-0.0949160009622573,5.144999980926514,-0.9800000190734864,-2.5374999046325684
2.6903996721799537,0.0500199981033802,-1.001863956451416,-0.0883279964327812,5.197500228881836,-1.190000057220459,-2.747499942779541
2.710477281673834,0.0417240001261234,-1.0057679414749146,-0.0832040011882782,5.372499942779541,-1.4874999523162842,-2.747499942779541
2.7305548911677144,0.0353799983859062,-0.9991799592971802,-0.0827159956097602,5.635000228881836,-1.5924999713897705,-2.275000095367432
2.750632500661595,0.0368440002202987,-0.998691976070404,-0.0895479992032051,4.672500133514404,-1.9075000286102293,-1.3650000095367432
2.770710110155475,0.0385520011186599,-0.9999119639396667,-0.0939399972558021,3.6050000190734863,-2.4674999713897705,-0.9800000190734864
2.7907877196493556,0.0368440002202987,-0.9845399856567384,-0.0868639945983886,3.430000066757202,-3.3600001335144043,-0.9975000023841858
2.810865329143236,0.0287919994443655,-0.9745360016822816,-0.0807639956474304,2.870000123977661,-4.917500019073486,-0.7699999809265137
2.8309429386371163,0.0243999995291233,-0.973315954208374,-0.0732000023126602,1.8550000190734863,-6.107500076293945,-0.2275000065565109
2.8510205481309967,0.0253759995102882,-0.994055986404419,-0.0807639956474304,-0.1749999970197677,-7.0,0.8575000166893005
2.871098157624877,0.032940000295639,-1.0150399208068848,-0.0878399983048439,-1.2424999475479126,-7.769999980926514,1.4700000286102295
2.8911757671187575,0.041967999190092,-1.0111359357833862,-0.0827159956097602,-0.699999988079071,-8.837499618530273,1.4175000190734863
2.911253376612638,0.0441639982163906,-1.0016199350357056,-0.0836919993162155,-0.8400000333786011,-9.642499923706056,1.7324999570846558
2.931330986106518,0.0402599982917308,-1.0084519386291504,-0.0900359973311424,-1.8899999856948853,-9.957500457763672,2.677500009536743
2.9514085956003986,0.0358680002391338,-1.011379957199097,-0.100283995270729,-1.837499976158142,-10.13249969482422,3.202500104904175
2.971486205094279,0.0192760005593299,-1.0104039907455444,-0.1166319996118545,-1.4350000619888306,-10.149999618530272,3.762500047683716
2.9915638145881593,0.032940000295639,-1.0011320114135742,-0.1012599989771843,-1.277500033378601,-11.480000495910645,3.674999952316284
3.0116414240820397,0.0297679994255304,-0.9842959642410278,-0.085887998342514,-1.3300000429153442,-12.792500495910645,3.762500047683716
3.03171903357592,0.0195199996232986,-0.9806360006332396,-0.0829599946737289,-2.012500047683716,-13.824999809265137,4.21750020980835
3.0517966430698005,0.0129319997504353,-0.9794159531593324,-0.0768599957227706,-2.5374999046325684,-14.875,4.025000095367432
3.071874252563681,0.0285479985177516,-0.9928359985351562,-0.0890600010752677,-4.497499942779541,-15.977499961853027,4.777500152587891
3.0919518620575612,0.037331998348236,-1.007475972175598,-0.0949160009622573,-4.707499980926514,-16.11750030517578,4.164999961853027
3.1120294715514416,0.042943999171257,-0.9989359974861144,-0.095891997218132,-3.692500114440918,-15.68000030517578,3.4649999141693115
3.132107081045322,0.0541680008172988,-1.0030839443206787,-0.109555996954441,-4.112500190734863,-15.190000534057615,3.8324999809265137
3.1521846905392024,0.0739319995045661,-0.9979599714279176,-0.1078479960560798,-3.8324999809265137,-14.524999618530272,3.692500114440918
3.1722623000330827,0.0819839984178543,-0.9835639595985411,-0.1063839942216873,-3.447499990463257,-13.142499923706056,3.430000066757202
3.192339909526963,0.0832040011882782,-0.9952759742736816,-0.105163998901844,-4.182499885559082,-11.095000267028809,3.569999933242798
3.2124175190208435,0.0827159956097602,-1.0016199350357056,-0.1115079969167709,-3.7799999713897705,-9.0649995803833,2.677500009536743
3.232495128514724,0.0817399993538856,-0.9999119639396667,-0.1088239997625351,-3.5350000858306885,-7.0,1.3825000524520874
3.2525727380086042,0.076615996658802,-1.0104039907455444,-0.1041879951953888,-3.5350000858306885,-5.25,0.7524999976158142
3.2726503475024846,0.0631959959864616,-1.0196759700775146,-0.1019919961690902,-2.0999999046325684,-4.199999809265137,0.1050000041723251
3.292727956996365,0.047580000013113,-1.0082080364227295,-0.1005280017852783,0.0874999985098838,-3.990000009536743,-0.612500011920929
3.3128055664902454,0.0339160002768039,-1.002351999282837,-0.1056519970297813,0.9975000023841858,-4.025000095367432,-0.7175000309944153
3.3328831759841258,0.0290360003709793,-0.9989359974861144,-0.1034559980034828,1.190000057220459,-4.042500019073486,-0.6299999952316284
3.352960785478006,0.0241560004651546,-1.0033279657363892,-0.0968680009245872,1.2599999904632568,-4.462500095367432,-0.5249999761581421
3.3730383949718865,0.0146399997174739,-1.0033279657363892,-0.0912560001015663,2.117500066757202,-5.215000152587891,-0.4550000131130218
3.393116004465767,0.0143959997221827,-1.012355923652649,-0.1024799942970275,2.380000114440918,-6.369999885559082,-0.5950000286102295
3.4131936139596473,0.0380639992654323,-0.9813680052757264,-0.0895479992032051,2.765000104904175,-7.087500095367432,-1.8550000190734863
3.4332712234535276,0.0480679981410503,-0.9745360016822816,-0.085887998342514,0.1400000005960464,-6.789999961853027,-1.784999966621399
3.453348832947408,0.0285479985177516,-0.9952759742736816,-0.0939399972558021,-1.347499966621399,-5.267499923706055,-1.2949999570846558
3.4734264424412884,0.0080519998446106,-1.0021079778671265,-0.0885719954967498,-0.7350000143051147,-5.320000171661377,-0.699999988079071
3.4935040519351688,-0.0231800004839897,-1.0299240350723269,-0.0824719965457916,-0.4724999964237213,-6.40500020980835,1.2424999475479126
3.513581661429049,-0.0414799973368644,-1.0467599630355835,-0.085887998342514,1.0149999856948853,-9.607500076293944,1.4874999523162842
3.5336592709229295,-0.0361119993031024,-1.0313879251480105,-0.0783239975571632,2.0999999046325684,-11.217499732971191,1.2949999570846558
3.55373688041681,-0.0058559998869895,-1.0055240392684937,-0.0744199976325035,2.414999961853028,-11.357500076293944,2.065000057220459
3.5738144899106903,0.0092719998210668,-0.9830759763717652,-0.090279996395111,3.0625,-10.237500190734863,2.870000123977661
3.5938920994045707,0.0222040005028247,-0.9542839527130128,-0.0934519991278648,2.765000104904175,-8.837499618530273,2.799999952316284
3.613969708898451,0.028303999453783,-0.9496479630470276,-0.0907679945230484,0.1574999988079071,-7.787499904632568,3.202500104904175
3.6340473183923314,0.0119559997692704,-0.9474520087242126,-0.1017479971051216,-2.5899999141693115,-7.892499923706055,3.5174999237060547
3.654124927886212,0.0017079999670386,-0.9603840112686156,-0.1276119947433471,-7.227499961853027,-8.767499923706055,3.884999990463257
3.674202537380092,-0.0056119998916983,-1.0260199308395386,-0.1129719987511634,-10.079999923706056,-6.84250020980835,3.0625
3.6942801468739725,-0.0204959996044635,-1.035048007965088,-0.1068719998002052,-7.682499885559082,-8.452500343322754,3.220000028610229
3.714357756367853,-0.0370879992842674,-1.036512017250061,-0.1056519970297813,-4.917500019073486,-11.234999656677246,3.377500057220459
3.7344353658617333,-0.0380639992654323,-1.0213840007781982,-0.1115079969167709,-1.8725000619888303,-13.072500228881836,3.674999952316284
3.7545129753556137,-0.0263519994914531,-1.006011962890625,-0.1193159967660904,-0.5249999761581421,-14.36750030517578,3.587500095367432
3.774590584849494,-0.013663999736309,-0.9884439706802368,-0.1190719977021217,-0.612500011920929,-15.837499618530272,3.289999961853028
3.7946681943433744,0.0046359999105334,-0.9659959673881532,-0.1256600022315979,-1.5750000476837158,-16.747499465942383,3.622499942779541
3.814745803837255,0.0178119987249374,-0.9630680084228516,-0.1381039917469024,-3.640000104904175,-16.327499389648438,4.952499866485596
3.834823413331135,0.0109799997881054,-0.9801479578018188,-0.1385920047760009,-5.652500152587891,-15.329999923706056,6.002500057220459
3.8549010228250156,-0.0085399998351931,-1.016503930091858,-0.138835996389389,-6.28249979019165,-14.1225004196167,5.84499979019165
3.874978632318896,-0.0202520005404949,-1.0269960165023804,-0.1198039948940277,-4.829999923706055,-13.369999885559082,4.147500038146973
3.8950562418127763,-0.0280600003898143,-1.019919991493225,-0.1010159999132156,-3.132499933242798,-14.524999618530272,2.5374999046325684
3.9151338513066567,-0.0363559983670711,-1.006500005722046,-0.100283995270729,-1.4350000619888306,-16.11750030517578,1.5575000047683716
3.935211460800537,-0.0570959970355033,-0.9818559885025024,-0.1029679998755455,-0.3675000071525574,-18.200000762939453,0.3499999940395355
3.9552890702944175,-0.0617319978773593,-0.9799039959907532,-0.0983319953083992,-2.1524999141693115,-22.1200008392334,-0.332500010728836
3.975366679788298,-0.0746639966964721,-1.0003999471664429,-0.130295991897583,-2.940000057220459,-26.21500015258789,-0.8575000166893005
3.995444289282178,-0.0854000002145767,-0.9855159521102904,-0.1893439888954162,-0.1225000023841857,-28.350000381469727,-3.255000114440918
4.015521898776059,-0.0871080011129379,-0.9320799708366394,-0.2098399996757507,2.345000028610229,-29.52250099182129,-7.577499866485596
4.0355995082699385,-0.0756400004029274,-0.9059720039367676,-0.1617719978094101,-1.4874999523162842,-30.83500099182129,-8.470000267028809
4.0556771177638185,-0.042943999171257,-0.944767951965332,-0.0946719944477081,-8.925000190734863,-31.727500915527344,-4.707499980926514
4.075754727257698,-0.0251320004463195,-0.993079960346222,-0.0627079978585243,-14.1225004196167,-33.494998931884766,0.1225000023841857
4.095832336751578,-0.0141519997268915,-1.0430999994277954,-0.0595359988510608,-16.362499237060547,-35.29750061035156,3.4124999046325684
4.115909946245458,0.0219599995762109,-1.026263952255249,-0.08661999553442,-12.792500495910645,-37.02999877929688,2.380000114440918
4.135987555739338,-0.0056119998916983,-1.0003999471664429,-0.0871080011129379,-9.887499809265137,-38.04500198364258,-0.7175000309944153
4.156065165233218,-0.0378200002014637,-0.9552599787712096,-0.1005280017852783,-7.070000171661377,-38.39500045776367,-5.057499885559082
4.176142774727098,-0.0695400014519691,-0.9484279751777648,-0.1146799996495246,-8.27750015258789,-37.625,-7.927500247955322
4.196220384220978,-0.0524599999189376,-0.981123983860016,-0.1129719987511634,-10.640000343322754,-36.29500198364258,-9.380000114440918
4.216297993714858,-0.0502640008926391,-0.9840520024299622,-0.1237079948186874,-10.307499885559082,-34.877498626708984,-11.375
4.236375603208738,-0.0512399971485137,-0.9996680021286012,-0.1171199977397918,-11.88249969482422,-36.522499084472656,-12.092499732971191
4.256453212702618,-0.0741759985685348,-0.9996680021286012,-0.1076039969921112,-7.297500133514404,-33.51250076293945,-14.9975004196167
4.276530822196498,-0.0939399972558021,-1.015771985054016,-0.1456679999828338,-7.892499923706055,-33.442501068115234,-12.092499732971191
4.296608431690378,-0.0756400004029274,-1.0277279615402222,-0.1407880038022995,-8.417500495910645,-36.29500198364258,-10.079999923706056
4.316686041184258,-0.0597799979150295,-1.007964015007019,-0.1205359995365142,-6.929999828338623,-35.279998779296875,-9.975000381469728
4.3367636506781375,-0.0548999980092048,-0.9757559895515442,-0.1115079969167709,-6.264999866485596,-32.30500030517578,-11.462499618530272
4.3568412601720174,-0.0541680008172988,-0.9616039991378784,-0.1200480014085769,-7.559999942779541,-28.700000762939453,-13.265000343322754
4.376918869665897,-0.0446520000696182,-0.9481839537620544,-0.1210239976644516,-9.170000076293944,-25.95249938964844,-15.050000190734863
4.396996479159777,-0.0278159994632005,-0.9611159563064576,-0.1268799901008606,-11.795000076293944,-21.559999465942383,-16.309999465942383
4.417074088653657,-0.0439199991524219,-0.9803919792175292,-0.1171199977397918,-13.63249969482422,-17.832500457763672,-16.922500610351562
4.437151698147537,-0.0675880014896392,-0.9933239817619324,-0.1205359995365142,-14.454999923706056,-16.782499313354492,-16.905000686645508
4.457229307641417,-0.0451399981975555,-1.0089399814605713,-0.1363959908485412,-13.037500381469728,-17.797500610351562,-17.815000534057617
4.477306917135297,-0.0195199996232986,-1.0050359964370728,-0.1417640000581741,-9.887499809265137,-17.377500534057617,-19.4950008392334
4.497384526629177,-0.0368440002202987,-1.0272400379180908,-0.1456679999828338,-8.767499923706055,-17.395000457763672,-18.84749984741211
4.517462136123057,-0.0717360004782676,-1.1109319925308228,-0.1393239945173263,-8.050000190734863,-18.252500534057617,-14.489999771118164
4.537539745616937,-0.1054079979658126,-1.1914520263671875,-0.1041879951953888,-0.875,-20.475000381469727,-9.852499961853027
4.557617355110817,-0.1339560002088546,-1.1597319841384888,-0.0817399993538856,11.707500457763672,-24.832500457763672,-7.71750020980835
4.577694964604697,-0.1559159904718399,-1.0499320030212402,-0.0975999981164932,21.36750030517578,-31.342500686645508,-8.085000038146973
4.597772574098577,-0.1341999918222427,-0.9171959757804872,-0.1061399951577186,20.895000457763672,-41.22999954223633,-12.005000114440918
4.617850183592457,-0.1202920004725456,-0.8654679656028748,-0.1261480003595352,16.747499465942383,-38.51750183105469,-17.447500228881836
4.6379277930863365,-0.0690519958734512,-0.8935279846191406,-0.1583559960126876,8.399999618530273,-38.1150016784668,-18.112499237060547
4.6580054025802164,-0.0319640003144741,-0.9210999608039856,-0.2176479995250702,4.724999904632568,-40.16249847412109,-16.957500457763672
4.678083012074096,0.0129319997504353,-0.9018239974975586,-0.2779159843921661,6.422500133514404,-41.86000061035156,-17.622499465942383
4.698160621567976,0.0178119987249374,-0.9176839590072632,-0.3289119899272918,6.457499980926514,-45.77999877929688,-16.8174991607666
4.718238231061856,-0.0356239974498748,-0.9511119723320008,-0.3440400063991546,6.527500152587891,-53.27000045776367,-13.19499969482422
4.738315840555736,0.0341599993407726,-1.03602397441864,-0.281819999217987,1.5924999713897705,-66.8324966430664,-9.204999923706056
4.758393450049616,0.0353799983859062,-1.0145519971847534,-0.2457079887390136,17.02750015258789,-68.40750122070312,-14.315000534057615
4.778471059543496,0.057583998888731,-1.0477359294891355,-0.2481479942798614,18.96999931335449,-73.3949966430664,-22.0674991607666
4.798548669037376,0.0873520001769065,-1.104099988937378,-0.2513200044631958,12.862500190734863,-79.94000244140625,-28.979999542236328
4.818626278531256,0.1439599990844726,-1.1392359733581543,-0.2176479995250702,11.585000038146973,-85.59249877929688,-33.372501373291016
4.838703888025136,0.1085800006985664,-1.0140639543533323,-0.2317999899387359,22.5575008392334,-83.86000061035156,-39.77750015258789
4.858781497519016,0.0368440002202987,-0.8693720102310181,-0.1876360028982162,13.912500381469728,-93.7125015258789,-36.62749862670898
4.878859107012896,0.0468479990959167,-0.9035319685935974,-0.2049599885940551,7.71750020980835,-98.20999908447266,-31.02750015258789
4.898936716506776,0.0836919993162155,-0.9206119775772096,-0.2266760021448135,4.497499942779541,-99.71500396728516,-29.34749984741211
4.919014326000656,0.095160000026226,-0.8898679614067078,-0.2608360052108764,2.327500104904175,-99.4875030517578,-31.167499542236328
4.9390919354945355,0.0932080000638961,-0.9298839569091796,-0.3023159801959991,-3.7100000381469727,-99.5749969482422,-32.182498931884766
4.9591695449884154,0.0949160009622573,-0.9852719902992249,-0.2430239915847778,-3.202500104904175,-97.31749725341795,-31.13249969482422
4.979247154482295,0.1100439950823783,-0.9738039970397948,-0.236191987991333,2.870000123977661,-95.05999755859376,-29.295000076293945
4.999324763976175,0.2147199958562851,-0.9725840091705322,-0.2317999899387359,4.252500057220459,-92.80249786376952,-29.76749992370605
5.019402373470055,0.2410719990730285,-0.9625799655914308,-0.2034959942102432,5.53000020980835,-88.0250015258789,-28.13999938964844
5.039479982963935,0.230335995554924,-0.952575981616974,-0.1825120002031326,2.694999933242798,-85.3125,-25.67250061035156
5.059557592457815,0.1263919919729232,-0.9413520097732544,-0.1920280009508133,1.6449999809265137,-83.2300033569336,-22.17250061035156
5.079635201951695,0.0790559947490692,-0.9559919834136964,-0.1964199990034103,1.5750000476837158,-82.96749877929688,-17.780000686645508
5.099712811445575,0.1088239997625351,-0.9228079915046692,-0.1722639948129654,1.995000004768372,-82.26750183105469,-14.9975004196167
5.119790420939455,0.1256600022315979,-0.884988009929657,-0.1751919984817505,0.3149999976158142,-82.12750244140625,-9.0649995803833
5.139868030433335,0.1395680010318756,-0.9289079904556274,-0.2095959931612014,-3.5174999237060547,-82.66999816894531,-4.09499979019165
5.159945639927215,0.1300520002841949,-0.9418399930000304,-0.2095959931612014,1.9424999952316284,-82.31999969482422,-4.53249979019165
5.180023249421095,0.1141919940710067,-0.895967960357666,-0.2039839923381805,6.84250020980835,-80.77999877929688,-5.442500114440918
5.200100858914975,0.1315159946680069,-0.9550159573554992,-0.1642120033502578,-0.5774999856948853,-83.2300033569336,-4.409999847412109
5.220178468408855,0.1566479951143264,-0.9960079789161682,-0.1124840006232261,1.662500023841858,-85.19000244140625,-3.954999923706055
5.2402560779027345,0.1515239924192428,-0.9642879962921144,-0.1032119989395141,9.414999961853027,-89.61750030517578,-3.132499933242798
5.260333687396614,0.0878399983048439,-0.8801079988479614,-0.1171199977397918,16.3799991607666,-93.1875,-1.0325000286102295
5.280411296890494,0.0378200002014637,-0.8305760025978088,-0.1166319996118545,16.030000686645508,-95.09500122070312,4.917500019073486
5.300488906384374,0.0636840015649795,-0.9325679540634156,-0.0412359982728958,4.96999979019165,-97.58000183105467,10.43000030517578
5.320566515878254,0.1163880005478859,-1.0384639501571655,-0.0217159986495971,1.5399999618530271,-101.36000061035156,8.960000038146973
5.340644125372134,0.17323999106884,-1.035048007965088,-0.075883999466896,6.440000057220459,-104.05500030517578,3.972500085830689
5.360721734866014,0.1332239955663681,-0.982587993144989,-0.2776719927787781,6.615000247955322,-101.97250366210938,0.8575000166893005
5.380799344359894,0.0292799994349479,-1.0452959537506104,-0.5587599873542786,-6.247499942779541,-94.3949966430664,2.817500114440918
5.400876953853774,0.1507920026779174,-1.337607979774475,-0.5319200158119202,-33.810001373291016,-82.3375015258789,0.8924999833106995
5.420954563347654,0.269131988286972,-1.5813639163970947,-0.5324079990386963,-42.8224983215332,-62.91249847412109,-13.369999885559082
5.441032172841534,0.2635200023651123,-1.453995943069458,-0.4445679783821106,-13.0024995803833,-42.560001373291016,-33.79249954223633
5.461109782335414,-0.0968680009245872,-0.7341960072517395,-0.3028039932250976,40.51250076293945,-42.10499954223633,-31.07999992370605
5.481187391829294,-0.2144759893417358,-0.6802719831466675,-0.2835280001163482,27.684999465942383,-58.25749969482422,-12.092499732971191
5.501265001323174,-0.2747440040111542,-0.6021919846534729,-0.2259439975023269,21.06999969482422,-65.9574966430664,-0.332500010728836
5.521342610817054,-0.2259439975023269,-0.6702679991722107,-0.2095959931612014,-0.9800000190734864,-72.67749786376953,10.587499618530272
5.5414202203109335,-0.0975999981164932,-0.9596520066261292,-0.2313119918107986,-33.42499923706055,-69.05500030517578,18.76000022888184
5.561497829804813,-0.0463600009679794,-1.3063759803771973,-0.3623400032520294,-51.6775016784668,-60.91749954223633,29.45249938964844
5.581575439298693,0.0024399999529123,-1.199015974998474,-0.3767359852790832,-12.022500038146973,-50.942501068115234,21.03499984741211
5.601653048792573,0.0361119993031024,-1.0211399793624878,-0.3577039837837219,15.24250030517578,-53.72499847412109,15.942500114440918
5.621730658286453,0.0251320004463195,-0.9164639711380004,-0.3086600005626678,16.520000457763672,-54.21500015258789,19.530000686645508
5.641808267780333,-0.0248879995197057,-0.9735599756240844,-0.2744999825954437,3.6575000286102295,-51.345001220703125,23.48500061035156
5.661885877274213,-0.1054079979658126,-0.9686799645423888,-0.2537599802017212,3.184999942779541,-46.98749923706055,22.364999771118164
5.681963486768093,-0.1788519918918609,-0.843019962310791,-0.2713280022144317,5.425000190734863,-38.08000183105469,22.01499938964844
5.702041096261973,-0.2164279967546463,-0.7078439593315125,-0.2698639929294586,-7.945000171661377,-31.9375,26.862499237060547
5.722118705755853,-0.2469279915094375,-0.7434679865837097,-0.234727993607521,-29.45249938964844,-32.095001220703125,36.34749984741211
5.742196315249733,-0.264739990234375,-0.7844600081443787,-0.2315559983253479,-37.817501068115234,-33.7400016784668,39.39250183105469
5.762273924743613,-0.2862119972705841,-0.7820199728012085,-0.234484001994133,-37.32749938964844,-37.310001373291016,35.9275016784668
5.782351534237493,-0.297435998916626,-0.8076399564743042,-0.281576007604599,-40.845001220703125,-41.70249938964844,33.880001068115234
5.802429143731373,-0.2876760065555572,-0.8422879576683044,-0.3459919989109039,-50.470001220703125,-44.747501373291016,31.0625
5.822506753225253,-0.280599981546402,-0.801539957523346,-0.3845439851284027,-45.92000198364258,-43.73250198364258,25.357500076293945
5.8425843627191325,-0.2644959986209869,-0.7280960083007812,-0.370635986328125,-37.64250183105469,-42.33250045776367,20.107500076293945
5.862661972213012,-0.2235039919614792,-0.7056480050086975,-0.3535560071468353,-41.807498931884766,-36.27750015258789,20.020000457763672
5.882739581706892,-0.1366399973630905,-0.8261839747428894,-0.3618519902229309,-54.775001525878906,-27.86000061035156,20.212499618530277
5.902817191200772,-0.0934519991278648,-0.7805559635162354,-0.3350119888782501,-34.54500198364258,-10.167500495910645,13.335000038146973
5.922894800694652,-0.0580720007419586,-0.6412320137023926,-0.2871879935264587,-25.375,1.7324999570846558,12.897500038146973
5.942972410188532,-0.0949160009622573,-0.5370439887046814,-0.244731992483139,-20.614999771118164,8.4350004196167,23.170000076293945
5.963050019682412,-0.1171199977397918,-0.5236240029335022,-0.2037400007247924,-24.762500762939453,3.640000104904175,36.24250030517578
5.983127629176292,-0.1088239997625351,-0.6739279627799988,-0.3638039827346802,-47.477500915527344,1.6974999904632568,47.59999847412109
6.003205238670172,-0.13468798995018,-0.5826719999313354,-0.2186239957809448,-37.36249923706055,18.44499969482422,45.13249969482422
6.023282848164052,-0.1944679915904998,-0.3367199897766113,-0.1010159999132156,-29.417499542236328,35.40250015258789,36.57500076293945
6.043360457657932,-0.0439199991524219,-0.4001599848270416,-0.0790559947490692,-27.212499618530277,33.31999969482422,36.994998931884766
6.063438067151812,-0.0656360015273094,-0.5265519618988037,-0.3811279833316803,-16.030000686645508,24.727500915527344,4.340000152587891
6.083515676645692,-0.2996319830417633,-0.8759599924087524,-0.5348479747772217,-61.932498931884766,22.1200008392334,11.725000381469728
6.103593286139572,-0.3752720057964325,-1.3664000034332275,-0.4155319929122925,-74.93499755859375,18.655000686645508,22.9424991607666
6.123670895633452,-0.1749479919672012,-1.4976719617843628,-0.2225279957056045,-42.03499984741211,8.154999732971191,11.917500495910645
6.1437485051273315,-0.1261480003595352,-1.2739239931106567,-0.2015440016984939,-10.43000030517578,-20.125,22.487499237060547
6.163826114621211,-0.2769399881362915,-1.0538359880447388,-0.6553840041160583,-2.117500066757202,7.0,-0.6299999952316284
6.183903724115091,-0.3184199929237366,-1.175104022026062,-0.8962119817733765,-19.26749992370605,34.59749984741211,-6.212500095367432
6.203981333608971,-0.5033720135688782,-1.4359400272369385,-0.7771399617195129,-15.925000190734863,14.50749969482422,-2.345000028610229
6.224058943102851,-0.4411519765853882,-1.3073519468307495,-0.4858039915561676,15.697500228881836,-18.00749969482422,3.674999952316284
6.244136552596731,-0.3537999987602234,-1.126304030418396,-0.3813720047473907,18.270000457763672,-27.440000534057617,3.7100000381469727
6.264214162090611,-0.2744999825954437,-1.0467599630355835,-0.5604680180549622,6.422500133514404,-14.420000076293944,-0.0350000001490116
6.284291771584491,-0.2317999899387359,-1.1582679748535156,-0.6734399795532227,5.039999961853027,3.307500123977661,-0.1749999970197677
6.304369381078371,-0.2940199971199035,-1.2688000202178955,-0.6573359966278076,17.149999618530273,8.925000190734863,-6.492499828338623
6.324446990572251,-0.4165079891681671,-1.2217079401016235,-0.6239079833030701,20.42250061035156,4.53249979019165,-15.329999923706056
6.344524600066131,-0.4365159869194031,-1.2387880086898804,-0.5956040024757385,11.672499656677246,-0.7875000238418579,-13.877500534057615
6.364602209560011,-0.322079986333847,-1.3732320070266724,-0.6651439666748047,0.3675000071525574,6.072500228881836,-3.3949999809265137
6.384679819053891,-0.2371679991483688,-1.5169479846954346,-0.802515983581543,-5.162499904632568,19.809999465942383,-3.202500104904175
6.404757428547771,-0.1803160011768341,-1.5430560111999512,-0.8288679718971252,-0.0350000001490116,29.854999542236328,-12.460000038146973
6.424835038041651,-0.1737279891967773,-1.6199159622192385,-0.6705119609832764,1.995000004768372,43.505001068115234,-19.38999938964844
6.4449126475355305,-0.2898719906806946,-1.9778639078140257,-0.5099599957466125,-7.349999904632568,58.1875,-24.114999771118164
6.46499025702941,-0.3564839959144592,-2.2623679637908936,-0.7415159940719604,12.005000114440918,74.0250015258789,-47.65250015258789
6.48506786652329,-0.1010159999132156,-2.571027994155884,-0.8466799855232239,20.247499465942383,45.9900016784668,-60.970001220703125
6.50514547601717,0.1820240020751953,-2.2665159702301025,-0.7285839915275574,-1.8200000524520876,20.247499465942383,-41.84249877929688
6.52522308551105,0.0551439970731735,-2.92385196685791,-1.140455961227417,-81.63749694824219,69.2125015258789,-20.440000534057617
6.54530069500493,-0.1966639906167984,-3.177611827850342,-1.24781596660614,-23.55500030517578,68.66999816894531,-30.55500030517578
6.56537830449881,-0.746396005153656,-1.6628599166870115,-1.281000018119812,155.25999450683594,60.34000015258789,-86.23999786376953
6.58545591399269,-0.7673799991607666,-0.6273239850997925,-0.9257360100746156,179.33999633789062,-7.175000190734863,-81.53250122070312
6.60553352348657,-0.4152880012989044,-0.3479439914226532,-0.5292360186576843,154.0175018310547,-26.70499992370605,-68.66999816894531
6.62561113298045,-0.2510759830474853,0.1293199956417083,-0.436271995306015,229.25,-0.2100000083446502,-104.70249938964844
6.64568874247433,-0.1254159957170486,0.8173999786376953,-0.4645760059356689,280.7699890136719,16.572500228881836,-103.80999755859376
6.66576635196821,-0.4074800014495849,1.2536720037460327,-0.6873480081558228,46.79500198364258,24.97249984741211,24.63999938964844
6.68584396146209,0.0846679955720901,0.4082120060920715,-0.0500199981033802,-72.85250091552734,-50.04999923706055,62.58000183105469
6.70592157095597,0.5870639681816101,-1.0274839401245115,0.5468040108680725,-119.13999938964844,-49.9275016784668,35.647499084472656
6.72599918044985,0.0348920002579689,-0.7312679886817932,-0.0307439994066953,36.85499954223633,52.95500183105469,-29.942501068115234
6.7460767899437295,-0.0580720007419586,-0.0985759943723678,-0.0717360004782676,47.11000061035156,32.689998626708984,-19.9325008392334
6.766154399437609,0.0290360003709793,0.3196399807929992,0.2271640002727508,56.01750183105469,4.199999809265137,-13.5625
6.786232008931489,0.037331998348236,0.0712479948997497,0.1210239976644516,-5.775000095367432,6.335000038146973,-1.995000004768372
6.806309618425369,-0.1027240008115768,-0.187391996383667,-0.0800319984555244,-4.934999942779541,5.84499979019165,10.86750030517578
6.826387227919249,-0.1466439962387085,0.0412359982728958,0.0026839999482035,14.297499656677246,-3.5350000858306885,5.337500095367432
6.846464837413129,-0.1834879964590072,0.0295239984989166,0.0319640003144741,13.614999771118164,-11.6899995803833,4.182499885559082
6.866542446907009,-0.0905239954590797,0.0580720007419586,0.1546960026025772,14.664999961853027,-17.482500076293945,-3.6050000190734863
6.886620056400889,0.0187879987061023,-0.0014639999717473,0.1983719915151596,15.627500534057615,-21.50749969482422,-9.0649995803833
6.906697665894769,0.1210239976644516,-0.0639280006289482,0.1349319964647293,16.8174991607666,-21.36750030517578,-9.397500038146973
6.926775275388649,0.1925159990787506,-0.0592919997870922,0.0163480006158351,19.862499237060547,-19.232500076293945,-9.887499809265137
6.946852884882529,0.1849519908428192,0.0112239997833967,0.0017079999670386,22.924999237060547,-18.795000076293945,-10.202500343322754
6.966930494376409,0.0927200019359588,0.0009759999811649,0.0483120009303092,19.21500015258789,-18.82999992370605,-6.212500095367432
6.987008103870289,0.0363559983670711,-0.0617319978773593,0.0512399971485137,14.822500228881836,-20.895000457763672,-4.462500095367432
7.007085713364169,0.0080519998446106,-0.066611997783184,0.0736880004405975,17.885000228881836,-24.27250099182129,-9.9399995803833
7.027163322858049,-0.0331839993596077,-0.0568519979715347,0.0275719985365867,26.565000534057617,-25.58500099182129,-12.8100004196167
7.0472409323519285,-0.0502640008926391,0.0117119997739791,-0.119559995830059,36.78499984741211,-24.325000762939453,-13.212499618530272
7.067318541845808,-0.0417240001261234,0.0043919999152421,-0.5350919961929321,21.80500030517578,-3.202500104904175,-6.632500171661377
7.087396151339688,-0.3577039837837219,-0.0975999981164932,-1.3437079191207886,-17.832500457763672,30.99250030517578,11.199999809265137
7.107473760833568,-1.2807559967041016,-1.1951119899749756,-1.8034039735794067,-165.9875030517578,38.46500015258789,53.30500030517578
7.127551370327448,0.4960519969463348,-5.343843936920166,-0.5099599957466125,-416.989990234375,-196.2449951171875,133.8050079345703
7.147628979821328,-0.0319640003144741,-5.837212085723877,-1.3197959661483765,-260.8900146484375,-146.52749633789062,195.07249450683597
7.167706589315208,-0.1183400005102157,-2.74865984916687,-1.4632679224014282,72.66000366210938,59.41249847412109,-132.3000030517578
7.187784198809088,-0.1737279891967773,-2.0137319564819336,-0.7751879692077637,132.61500549316406,56.89250183105469,-125.3000030517578
7.207861808302968,0.2052039951086044,-0.9398880004882812,-0.0993079990148544,139.84249877929688,-22.207500457763672,-54.845001220703125
7.227939417796848,0.2086199969053268,-1.7951079607009888,-0.2942639887332916,-16.537500381469727,-24.920000076293945,21.962499618530277
7.248017027290728,0.1869039982557296,-1.7136119604110718,-0.5097159743309021,-5.880000114440918,-8.662500381469727,43.64500045776367
7.268094636784608,-0.3191519975662231,-1.5384199619293213,-0.3928399980068207,-36.994998931884766,9.15250015258789,34.807498931884766
7.288172246278488,-0.2164279967546463,-1.5281720161437988,-0.3725879788398742,-52.0625,16.3799991607666,8.137499809265137
7.308249855772368,-0.1644559949636459,-1.285148024559021,-0.3852759897708893,-19.040000915527344,19.232500076293945,-1.2949999570846558
7.328327465266248,-0.1212679967284202,-1.042367935180664,-0.3752720057964325,-3.849999904632568,7.244999885559082,10.255000114440918
7.3484050747601275,-0.0509959980845451,-0.9257360100746156,-0.3903999924659729,-3.692500114440918,-2.625,18.497499465942383
7.368482684254007,0.0370879992842674,-0.8134959936141968,-0.3113439977169037,-6.212500095367432,-8.4350004196167,18.479999542236328
7.388560293747887,0.1117519959807396,-0.9274439811706544,-0.2110600024461746,-17.5,-11.602499961853027,18.462499618530277
7.408637903241767,0.065880000591278,-0.8449719548225403,-0.181779995560646,-9.537500381469728,-7.349999904632568,11.462499618530272
7.428715512735647,-0.0180559996515512,-0.7276079654693604,-0.1664080023765564,12.407500267028809,11.427499771118164,3.132499933242798
7.448793122229527,-0.0746639966964721,-0.533627986907959,-0.2093520015478134,30.100000381469727,14.087499618530272,-2.275000095367432
7.468870731723407,-0.0732000023126602,-0.3601439893245697,-0.2193560004234314,27.895000457763672,14.06999969482422,5.494999885559082
7.488948341217287,-0.0641719996929168,-0.4313919842243194,-0.2928000092506408,-5.022500038146973,13.020000457763672,22.049999237060547
7.509025950711167,-0.0690519958734512,-0.6707559823989868,-0.4435919821262359,-15.767499923706056,13.457500457763672,30.59000015258789
7.529103560205047,-0.0841799974441528,-0.6024360060691833,-0.4696999788284302,4.445000171661377,16.799999237060547,33.26750183105469
7.549181169698927,-0.0824719965457916,-0.4682359993457794,-0.3903999924659729,20.93000030517578,14.770000457763672,34.9474983215332
7.569258779192807,-0.0919879972934722,-0.3984519839286804,-0.3835679888725281,20.57999992370605,11.164999961853027,36.73250198364258
7.589336388686687,-0.1383479982614517,-0.4887319803237915,-0.3211039900779724,5.197500228881836,10.3774995803833,35.47249984741211
7.609413998180567,-0.2139879912137985,-0.8537560105323792,-0.2513200044631958,-19.98500061035156,5.144999980926514,23.11750030517578
7.629491607674447,-0.2432679980993271,-1.179495930671692,-0.1851959973573684,-27.71999931335449,8.295000076293945,1.4175000190734863
7.6495692171683265,-0.3340359926223755,-1.4910839796066284,-0.1876360028982162,-27.317501068115234,21.1924991607666,-16.59000015258789
7.669646826662206,-0.2757200002670288,-1.4083679914474487,-0.1534759998321533,0.4200000166893005,12.880000114440918,-28.90999984741211
7.689724436156086,-0.1861719936132431,-1.0316319465637207,-0.1559159904718399,25.899999618530277,-3.797500133514404,-18.637500762939453
7.709802045649966,-0.1510359942913055,-0.8801079988479614,-0.220331996679306,27.107500076293945,-19.9325008392334,1.1725000143051147
7.729879655143846,-0.1317600011825561,-0.9132919907569884,-0.3733199834823608,25.96999931335449,-22.76749992370605,12.145000457763672
7.749957264637726,-0.0468479990959167,-0.8896239995956421,-0.3813720047473907,25.8125,-16.940000534057617,11.672499656677246
7.770034874131606,0.0129319997504353,-0.9559919834136964,-0.2637639939785003,17.954999923706055,-11.987500190734863,6.982500076293945
7.790112483625486,-0.0185439996421337,-0.8830359578132629,-0.1066280007362365,18.95249938964844,-7.875,2.2925000190734863
7.810190093119366,-0.0700279995799064,-0.7600600123405457,-0.0226919986307621,15.38249969482422,-4.550000190734863,3.2725000381469727
7.830267702613246,-0.0585599988698959,-0.7786039710044861,-0.0126879997551441,-0.5950000286102295,-1.277500033378601,7.804999828338623
7.850345312107126,0.0775920003652572,-0.9284200072288512,-0.0339160002768039,-25.32250022888184,-12.355000495910645,10.342499732971191
7.870422921601006,0.0636840015649795,-0.9633119702339172,-0.130295991897583,-16.55500030517578,14.787500381469728,-1.3125
7.890500531094886,-0.0126879997551441,-0.9528200030326844,-0.1200480014085769,-12.25,18.059999465942383,-7.787499904632568
7.910578140588766,-0.0685639977455139,-0.9608719944953918,-0.1671399921178817,-9.100000381469728,19.739999771118164,-15.015000343322754
7.930655750082646,-0.0683199986815452,-1.0538359880447388,-0.1656759977340698,-8.767499923706055,19.28499984741211,-17.86750030517578
7.9507333595765255,-0.1437159925699234,-1.0992200374603271,-0.1315159946680069,-1.1549999713897705,10.3774995803833,-18.217500686645508
7.970810969070405,-0.1881240010261535,-1.0601799488067627,-0.0627079978585243,9.15250015258789,-1.680000066757202,-20.26499938964844
7.990888578564285,-0.1161440014839172,-1.0509079694747925,-0.0319640003144741,13.440000534057615,-5.740000247955322,-19.792499542236328
8.010966188058166,-0.0290360003709793,-0.9957639575004578,-0.0300120003521442,14.80500030517578,-4.672500133514404,-16.799999237060547
8.031043797552046,0.0692960023880004,-0.9833199977874756,0.0231800004839897,11.077500343322754,-3.0274999141693115,-11.462499618530272
8.051121407045926,-0.1173639968037605,-1.0011320114135742,-0.0651479959487915,3.9375,-3.7274999618530273,-4.619999885559082
8.071199016539806,-0.4025999903678894,-1.2246359586715698,-0.2505879998207092,-9.047499656677246,-11.637499809265137,3.7100000381469727
8.091276626033686,-0.4238280057907104,-1.5445200204849243,-0.3242760002613067,-26.337499618530277,-14.770000457763672,10.53499984741211
8.111354235527566,-0.3891800045967102,-1.7292280197143557,-0.3847880065441131,-23.940000534057617,-23.065000534057617,2.870000123977661
8.131431845021446,-0.2971920073032379,-1.6435840129852295,-0.2730360031127929,2.747499942779541,-28.420000076293945,-13.107500076293944
8.151509454515326,-0.0846679955720901,-1.2741680145263672,-0.3115879893302917,33.72249984741211,-29.71500015258789,-32.83000183105469
8.171587064009206,0.0197639986872673,-0.8005639910697937,-0.3694159984588623,48.84249877929688,-20.8075008392334,-51.310001373291016
8.191664673503086,-0.0080519998446106,-0.4384679794311523,-0.3284240067005157,41.5625,8.732500076293945,-61.56499862670898
8.211742282996966,-0.1366399973630905,-0.4106519818305969,-0.3540439903736114,9.800000190734863,21.59499931335449,-54.880001068115234
8.231819892490845,-0.1700679957866668,-0.5148400068283081,-0.3269599974155426,-16.625,6.650000095367432,-40.775001525878906
8.251897501984725,-0.1485960036516189,-0.6822239756584167,-0.2857239842414856,-33.67000198364258,-11.619999885559082,-25.707500457763672
8.271975111478605,-0.1300520002841949,-1.013819932937622,-0.297435998916626,-36.66249847412109,-24.0625,-7.909999847412109
8.292052720972485,-0.1371279954910278,-1.2021880149841309,-0.3223240077495575,-11.217499732971191,-34.54500198364258,-4.322500228881836
8.312130330466365,-0.1356640011072158,-1.1355760097503662,-0.2857239842414856,17.780000686645508,-42.85750198364258,-16.975000381469727
8.332207939960245,-0.1456679999828338,-1.0135760307312012,-0.3252519965171814,34.10750198364258,-48.5625,-29.75
8.352285549454125,-0.1586000025272369,-0.8988959789276123,-0.3584359884262085,38.727500915527344,-53.91749954223633,-35.227500915527344
8.372363158948005,-0.1324919909238815,-0.8740079998970032,-0.3960119783878326,31.0625,-62.45750045776367,-36.57500076293945
8.392440768441885,-0.1542080044746399,-0.8571720123291016,-0.3769800066947937,20.545000076293945,-69.75499725341797,-34.877498626708984
8.412518377935765,-0.0929640009999275,-0.8644919991493225,-0.3074399828910827,12.31999969482422,-72.94000244140625,-31.07999992370605
8.432595987429645,-0.0304999984800815,-0.8173999786376953,-0.2876760065555572,6.579999923706055,-72.74749755859375,-30.887500762939453
8.452673596923525,0.0344039984047412,-0.7783600091934204,-0.3037799894809723,-3.132499933242798,-73.65750122070312,-31.674999237060547
8.472751206417405,0.032940000295639,-0.8205719590187073,-0.3694159984588623,-24.02750015258789,-74.97000122070312,-21.979999542236328
8.492828815911285,-0.0100039998069405,-0.8557080030441284,-0.359167993068695,-29.81999969482422,-74.65499877929688,-16.572500228881836
8.512906425405165,-0.0265959985554218,-1.0030839443206787,-0.3159799873828888,-35.94499969482422,-76.17749786376953,-9.22249984741211
8.532984034899044,0.0012199999764561,-1.0016199350357056,-0.2405840009450912,-27.317501068115234,-77.73500061035156,-10.167500495910645
8.553061644392924,0.0246439985930919,-0.936959981918335,-0.2518079876899719,-20.387500762939453,-77.31500244140625,-13.352499961853027
8.573139253886804,0.1310279965400695,-0.8903560042381287,-0.2735239863395691,-16.729999542236328,-71.99500274658203,-14.06999969482422
8.593216863380684,0.1017479971051216,-0.8234999775886536,-0.3150039911270141,-12.039999961853027,-56.70000076293945,-12.494999885559082
8.613294472874564,0.1586000025272369,-0.8925519585609436,-0.2730360031127929,-15.697500228881836,-60.147499084472656,-7.752500057220459
8.633372082368444,0.0907679945230484,-0.8095920085906982,-0.2796239852905273,-11.30500030517578,-54.18000030517578,-4.900000095367432
8.653449691862324,0.0631959959864616,-0.8661999702453613,-0.3311080038547516,-19.670000076293945,-51.20500183105469,1.837499976158142
8.673527301356204,0.1119959950447082,-0.972827970981598,-0.3516039848327636,-14.787500381469728,-44.852500915527344,3.7799999713897705
8.693604910850084,0.1793399900197982,-1.0155279636383057,-0.3855199813842773,1.4700000286102295,-39.8650016784668,2.9749999046325684
8.713682520343964,0.1808039993047714,-1.0418800115585327,-0.366487979888916,10.762499809265137,-44.72999954223633,1.0325000286102295
8.733760129837844,0.1178519949316978,-1.012112021446228,-0.2749879956245422,13.877500534057615,-46.935001373291016,-5.40749979019165
8.753837739331724,0.0192760005593299,-0.9101200103759766,-0.1539639979600906,21.262500762939453,-51.48500061035156,-15.802499771118164
8.773915348825604,-0.0234239995479583,-0.8437519669532776,-0.2608360052108764,11.725000381469728,-52.657501220703125,-21.332500457763672
8.793992958319484,-0.142984002828598,-0.8781560063362122,-0.5370439887046814,-11.30500030517578,-47.407501220703125,-18.479999542236328
8.814070567813364,0.0968680009245872,-1.3017399311065674,-0.456523984670639,-41.03749847412109,-43.102500915527344,-16.65999984741211
8.834148177307243,0.2374119907617569,-1.4278879165649414,-0.4545719921588897,-40.12749862670898,-24.482500076293945,-23.32749938964844
8.854225786801123,0.1734839975833892,-1.423251986503601,-0.4006479978561401,-26.809999465942383,-11.182499885559082,-27.107500076293945
8.874303396295003,0.2130119949579239,-1.342244029045105,-0.403331995010376,-2.870000123977661,-3.797500133514404,-27.8075008392334
8.894381005788883,0.1964199990034103,-1.0933640003204346,-0.4531079828739166,28.052499771118164,3.990000009536743,-23.65999984741211
8.914458615282763,0.1381039917469024,-0.9308599829673768,-0.4897079765796661,25.40999984741211,5.355000019073486,-15.78499984741211
8.934536224776643,0.0629519969224929,-0.9110959768295288,-0.3947919905185699,4.480000019073486,2.2925000190734863,-16.572500228881836
8.954613834270523,-0.0849120020866394,-0.8417999744415283,-0.2298479974269867,-3.8324999809265137,-0.7175000309944153,-21.73500061035156
8.974691443764403,-0.2098399996757507,-0.7395640015602112,-0.1295640021562576,1.8025000095367432,-6.387499809265137,-21.262500762939453
8.994769053258283,-0.2481479942798614,-0.6102439761161804,-0.1725080013275146,16.537500381469727,-2.870000123977661,-13.335000038146973
9.014846662752163,-0.2254559993743896,-0.5877959728240967,-0.3520919978618622,2.572499990463257,8.907500267028809,6.84250020980835
9.034924272246043,-0.1300520002841949,-1.177299976348877,-0.4914159774780273,-43.907501220703125,7.262499809265137,29.732500076293945
9.055001881739923,0.0285479985177516,-1.3498079776763916,-0.4228519797325134,-19.0049991607666,-0.8224999904632568,24.114999771118164
9.075079491233803,0.0073199998587369,-0.9347639679908752,-0.3625839948654175,36.71500015258789,17.780000686645508,10.289999961853027
9.095157100727683,-0.0356239974498748,-0.8574159741401672,-0.3025600016117096,29.61000061035156,21.122499465942383,8.470000267028809
9.115234710221563,-0.0983319953083992,-0.8520479798316956,-0.2471719980239868,30.030000686645508,22.69750022888184,5.442500114440918
9.135312319715442,-0.1715319901704788,-0.6846640110015869,-0.1908079981803894,34.002498626708984,23.502500534057617,6.860000133514404
9.155389929209322,-0.2217959910631179,-0.5668119788169861,-0.1737279891967773,22.08500099182129,19.337499618530277,17.167499542236328
9.175467538703202,-0.2222839891910553,-0.6117079854011536,-0.2064239978790283,-2.765000104904175,12.092499732971191,30.380001068115234
9.195545148197082,-0.2191119939088821,-0.7373679876327515,-0.2520520091056824,-27.177499771118164,5.477499961853027,33.86249923706055
9.215622757690962,-0.1063839942216873,-1.0069879293441772,-0.224480003118515,-41.66749954223633,-2.117500066757202,26.11000061035156
9.235700367184842,-0.0844239965081214,-1.0089399814605713,-0.1978839933872223,-20.42250061035156,2.0824999809265137,2.992500066757202
9.255777976678722,-0.0436760000884532,-0.9637999534606934,-0.2147199958562851,-7.017499923706055,-2.712500095367432,-19.127500534057617
9.275855586172602,-0.0200079996138811,-0.8764479756355286,-0.253271996974945,3.552500009536743,-1.5399999618530271,-38.272499084472656
9.295933195666482,-0.0932080000638961,-0.8361879587173462,-0.3111000061035156,4.077499866485596,5.005000114440918,-48.96500015258789
9.316010805160362,-0.0585599988698959,-0.905239999294281,-0.2696200013160705,-1.225000023841858,-2.327500104904175,-47.59999847412109
9.336088414654242,-0.0366000011563301,-0.9635559916496276,-0.2823079824447632,-2.2049999237060547,-8.802499771118164,-42.17499923706055
9.356166024148122,0.0053679998964071,-1.0828720331192017,-0.2993879914283752,-5.547500133514404,-15.119999885559082,-40.477500915527344
9.376243633642002,-0.0261080004274845,-0.9947879910469056,-0.3413559794425964,2.012500047683716,-13.177499771118164,-47.96749877929688
9.396321243135882,0.0197639986872673,-0.9589200019836426,-0.3140279948711395,-2.992500066757202,-22.225000381469727,-43.48749923706055
9.416398852629762,0.0563639998435974,-1.0901919603347778,-0.2547360062599182,-10.56999969482422,-25.76000022888184,-27.51000022888184
9.436476462123641,0.191783994436264,-1.1965759992599487,-0.3267160058021545,-4.269999980926514,-24.325000762939453,-13.5625
9.456554071617521,0.2603479921817779,-1.1907199621200562,-0.342087984085083,7.332499980926514,-19.46000099182129,-5.740000247955322
9.476631681111401,0.0092719998210668,-1.0753079652786257,-0.3886919915676117,13.265000343322754,-16.957500457763672,-5.827499866485596
9.496709290605281,-0.2376559972763061,-1.0274839401245115,-0.4787279963493347,4.514999866485596,-23.8174991607666,-6.737500190734863
9.516786900099161,-0.2561999857425689,-1.1587560176849363,-0.3577039837837219,-16.65999984741211,-24.780000686645508,1.9424999952316284
9.536864509593041,-0.2866999804973602,-1.1385040283203125,-0.2788919806480407,-17.920000076293945,-28.15749931335449,-2.502500057220459
9.556942119086921,-0.2583959996700287,-0.9452559947967528,-0.3425759971141815,-5.757500171661377,-31.56999969482422,-22.924999237060547
9.577019728580801,-0.1395680010318756,-0.7327319979667664,-0.3186639845371246,1.2599999904632568,-35.73500061035156,-40.880001068115234
9.597097338074681,-0.0646599978208541,-0.5028839707374573,-0.3211039900779724,6.369999885559082,-39.63750076293945,-43.400001525878906
9.61717494756856,-0.0478239990770816,-0.4560360014438629,-0.3933279812335968,-6.545000076293945,-42.209999084472656,-24.2549991607666
9.63725255706244,-0.0065879998728632,-0.5519279837608337,-0.4823879897594452,-20.63249969482422,-42.122501373291016,1.347499966621399
9.65733016655632,-0.0168359987437725,-0.8149600028991699,-0.5807200074195862,-42.84000015258789,-47.09249877929688,22.46999931335449
9.6774077760502,0.0453839972615242,-1.3000320196151731,-0.5238679647445679,-43.032501220703125,-69.24749755859375,14.140000343322754
9.69748538554408,-0.0009759999811649,-1.1043440103530884,-0.4513999819755554,-4.672500133514404,-70.9625015258789,-18.934999465942383
9.71756299503796,-0.0270840004086494,-0.9091439843177797,-0.4840959906578064,-0.5950000286102295,-76.54499816894531,-41.98250198364258
9.73764060453184,-0.0231800004839897,-0.7998319864273071,-0.4862920045852661,-3.954999923706055,-79.66000366210938,-48.26499938964844
9.75771821402572,-0.0207399986684322,-0.692471981048584,-0.4038199782371521,-7.122499942779541,-79.55500030517578,-41.47499847412109
9.7777958235196,-0.0158599987626075,-0.6507480144500732,-0.3630719780921936,-19.38999938964844,-81.56749725341797,-29.872499465942383
9.79787343301348,-0.0078079998493194,-0.7542039752006531,-0.3423320055007934,-36.15499877929688,-87.76249694824219,-18.690000534057617
9.81795104250736,-0.0121999997645616,-0.8842560052871704,-0.3542879819869995,-48.369998931884766,-96.3550033569336,-10.43000030517578
9.83802865200124,-0.0212280005216598,-1.0223599672317505,-0.4396879971027374,-46.04249954223633,-105.19249725341795,-8.697500228881836
9.85810626149512,0.0134199997410178,-1.056764006614685,-0.4757999777793884,-33.86249923706055,-110.38999938964844,-13.19499969482422
9.878183870989,-0.0243999995291233,-0.9242720007896424,-0.5128880143165588,-12.21500015258789,-104.9124984741211,-20.790000915527344
9.89826148048288,-0.0385520011186599,-0.8288679718971252,-0.5546119809150696,-8.767499923706055,-101.98999786376952,-27.002500534057617
9.91833908997676,-0.0468479990959167,-0.7864120006561279,-0.6295199990272522,-11.829999923706056,-100.55500030517578,-24.290000915527344
9.93841669947064,-0.0590479969978332,-0.7820199728012085,-0.6519680023193359,-21.315000534057617,-98.03500366210938,-16.940000534057617
9.95849430896452,-0.0751519948244094,-0.8300879597663879,-0.6644119620323181,-28.01749992370605,-94.79750061035156,-14.192500114440918
9.9785719184584,0.033671997487545,-0.7864120006561279,-0.5965799689292908,-25.864999771118164,-91.6125030517578,-21.227500915527344
9.99864952795228,0.0900359973311424,-0.7446879744529724,-0.4330999851226806,-29.364999771118164,-81.98750305175781,-25.602500915527344
10.01872713744616,0.0907679945230484,-0.8110559582710266,-0.5402159690856934,-45.95500183105469,-76.4749984741211,-23.92250061035156
10.03880474694004,0.0012199999764561,-0.9418399930000304,-0.5299679636955261,-46.35750198364258,-80.20249938964844,-21.89249992370605
10.05888235643392,-0.0600240007042884,-0.925491988658905,-0.5885279774665833,-34.352500915527344,-92.03250122070312,-23.48500061035156
10.0789599659278,-0.1581119894981384,-0.8356999754905701,-0.6180520057678223,-20.86000061035156,-101.3249969482422,-27.842500686645508
10.09903757542168,-0.2091079950332641,-0.7417600154876709,-0.541923999786377,-13.317500114440918,-112.31500244140624,-32.654998779296875
10.11911518491556,-0.1586000025272369,-0.6661199927330017,-0.4587199985980987,-9.0649995803833,-123.76000213623048,-37.52000045776367
10.139192794409439,-0.1988599896430969,-0.5036159753799438,-0.5282599925994873,-4.427500247955322,-126.4375,-35.087501525878906
10.159270403903319,-0.1944679915904998,-0.5568079948425293,-0.5768159627914429,-19.915000915527344,-143.00999450683594,-17.727500915527344
10.179348013397199,-0.1637239903211593,-0.7659159898757935,-0.7710399627685547,-52.0625,-161.35000610351562,1.5225000381469729
10.199425622891079,-0.281819999217987,-0.8696159720420837,-0.7973920106887817,-54.459999084472656,-152.63499450683594,1.0674999952316284
10.219503232384959,-0.3830800056457519,-0.9381799697875975,-0.7449319958686829,-57.45249938964844,-140.99749755859375,-15.977499961853027
10.239580841878839,-0.234484001994133,-0.7759199738502502,-0.4777520000934601,-47.845001220703125,-105.92749786376952,-41.00249862670898
10.259658451372719,-0.1590880006551742,-0.4867799878120422,-0.4477399885654449,-41.98250198364258,-75.7750015258789,-51.380001068115234
10.279736060866599,-0.185928001999855,-0.5651040077209473,-0.5943840146064758,-73.30750274658203,-76.14250183105469,-21.45499992370605
10.299813670360479,-0.2937760055065155,-0.6971079707145691,-0.5080080032348633,-87.74500274658203,-66.67500305175781,-12.774999618530272
10.319891279854359,-0.3128080070018768,-0.6219559907913208,-0.38332399725914,-91.47250366210938,-51.712501525878906,-15.172499656677246
10.339968889348238,-0.2510759830474853,-0.5651040077209473,-0.3925960063934326,-90.52750396728516,-39.25249862670898,-12.28499984741211
10.360046498842118,-0.1715319901704788,-0.7144320011138916,-0.5148400068283081,-86.7125015258789,-48.58000183105469,16.99250030517578
10.380124108335998,-0.2357039898633957,-1.0604239702224731,-0.7649399638175964,-76.61499786376953,-58.76499938964844,46.83000183105469
10.400201717829878,-0.2642520070075989,-0.8537560105323792,-0.607804000377655,-47.7400016784668,-45.90250015258789,56.01750183105469
10.420279327323758,-0.3689279854297638,-0.7893399596214294,-0.5868200063705444,-56.40250015258789,-41.369998931884766,57.26000213623047
10.440356936817638,-0.4557919800281524,-0.8203279972076416,-0.5438759922981262,-52.692501068115234,-29.61000061035156,37.6775016784668
10.460434546311518,-0.5870639681816101,-0.636352002620697,-0.6256160140037537,-41.91249847412109,-20.825000762939453,15.24250030517578
10.480512155805398,-0.5023959875106812,-0.6495279669761658,-0.5877959728240967,-36.20750045776367,-16.957500457763672,22.190000534057617
10.500589765299278,-0.4848279953002929,-0.4770199954509735,-0.6246399879455566,-39.7599983215332,-4.497499942779541,43.540000915527344
10.520667374793158,-0.2557120025157928,-0.6792960166931152,-0.5494880080223083,-57.76750183105469,-22.627500534057617,57.61000061035156
10.540744984287038,-0.2681559920310974,-0.664900004863739,-0.517524003982544,-36.3650016784668,-15.225000381469728,57.04999923706055
10.560822593780918,-0.452131986618042,-0.6527000069618225,-0.6200039982795715,-37.852500915527344,-15.119999885559082,42.57749938964844
10.580900203274798,-0.5714479684829712,-0.655627965927124,-0.6095119714736938,-33.967498779296875,-17.552499771118164,31.149999618530277
10.600977812768678,-0.7005239725112915,-0.7605479955673218,-0.6832000017166138,-33.494998931884766,-18.82999992370605,32.567501068115234
10.621055422262557,-0.6822239756584167,-0.7439559698104858,-0.7700639963150024,-28.087499618530277,-16.362499237060547,31.780000686645508
10.641133031756437,-0.5453400015830994,-0.6990599632263184,-0.7969039678573608,-21.524999618530277,-16.99250030517578,28.227500915527344
10.661210641250317,-0.5285040140151978,-0.6107319593429565,-0.7986119985580444,-12.197500228881836,-19.792499542236328,22.977500915527344
10.681288250744197,-0.5494880080223083,-0.5502200126647949,-0.7773839831352234,-7.227499961853027,-27.317501068115234,21.979999542236328
10.701365860238077,-0.4557919800281524,-0.5309439897537231,-0.6953999996185303,-9.22249984741211,-25.23500061035156,29.977500915527344
10.721443469731957,-0.4262679815292358,-0.4635999798774719,-0.6229320168495178,-19.582500457763672,-14.770000457763672,36.907501220703125
10.741521079225837,-0.4467639923095703,-0.5389959812164307,-0.6336680054664612,-35.47249984741211,-9.904999732971191,32.252498626708984
10.761598688719717,-0.5426560044288635,-0.582427978515625,-0.7258999943733215,-34.05500030517578,-5.09250020980835,22.69750022888184
10.781676298213597,-0.6285439729690552,-0.5380200147628784,-0.7920239567756653,-26.127500534057617,-10.762499809265137,19.19750022888184
10.801753907707477,-0.696619987487793,-0.5123999714851379,-0.814471960067749,-26.82749938964844,-20.19499969482422,20.94750022888184
10.821831517201357,-0.7107719779014587,-0.5729119777679443,-0.7559120059013367,-29.78499984741211,-21.06999969482422,19.18000030517578
10.841909126695237,-0.6429399847984314,-0.5245999693870544,-0.6905199885368347,-19.4950008392334,-18.1299991607666,9.1875
10.861986736189117,-0.5172799825668335,-0.4614039957523346,-0.721996009349823,-7.945000171661377,-12.897500038146973,-3.132499933242798
10.882064345682997,-0.6202479600906372,-0.4726279973983764,-0.7881199717521667,-1.5399999618530271,0.4900000095367431,-16.607500076293945
10.902141955176877,-0.6917399764060974,-0.5138639807701111,-0.7929999828338623,-3.255000114440918,4.795000076293945,-17.90250015258789
10.922219564670756,-0.6678279638290405,-0.5604680180549622,-0.7981239557266235,-4.409999847412109,9.887499809265137,-19.530000686645508
10.942297174164636,-0.6017040014266968,-0.5777919888496399,-0.7959280014038086,-0.9100000262260436,16.344999313354492,-21.80500030517578
10.962374783658516,-0.5609560012817383,-0.5494880080223083,-0.7861679792404175,5.635000228881836,21.21000099182129,-24.622499465942383
10.982452393152396,-0.5653479695320129,-0.5053240060806274,-0.7644519805908203,11.392499923706056,20.877500534057617,-30.362499237060547
11.002530002646276,-0.5731559991836548,-0.4775079786777496,-0.7363919615745544,11.760000228881836,21.6299991607666,-34.9474983215332
11.022607612140156,-0.549731969833374,-0.4999559819698334,-0.7129679918289185,8.697500228881836,21.80500030517578,-38.04500198364258
11.042685221634036,-0.4980039894580841,-0.5321639776229858,-0.6890559792518616,5.792500019073486,22.03249931335449,-41.00249862670898
11.062762831127916,-0.473360002040863,-0.5594919919967651,-0.6939359903335571,4.445000171661377,24.114999771118164,-45.709999084472656
11.082840440621796,-0.4531079828739166,-0.5714479684829712,-0.6802719831466675,3.849999904632568,25.217500686645508,-51.53749847412109
11.102918050115676,-0.4440799951553345,-0.587552011013031,-0.6673399806022644,5.302500247955322,25.34000015258789,-56.13999938964844
11.122995659609556,-0.3986960053443908,-0.6012159585952759,-0.6802719831466675,6.177500247955322,24.2549991607666,-58.99250030517578
11.143073269103436,-0.3562400043010711,-0.6168320178985596,-0.7146759629249573,3.1675000190734863,26.424999237060547,-59.76250076293945
11.163150878597316,-0.3711239993572235,-0.6512359976768494,-0.7215079665184021,-0.7699999809265137,31.832500457763672,-59.77999877929688
11.183228488091196,-0.4172399938106537,-0.6797839999198914,-0.7212640047073364,0.1574999988079071,32.79500198364258,-60.88249969482422
11.203306097585076,-0.4572559893131256,-0.6844199895858765,-0.7215079665184021,4.96999979019165,25.934999465942383,-62.87749862670898
11.223383707078955,-0.4155319929122925,-0.7124800086021423,-0.6914960145950317,13.737500190734863,19.302499771118164,-64.90750122070312
11.243461316572835,-0.4191919863224029,-0.7276079654693604,-0.669048011302948,23.69499969482422,20.09000015258789,-65.32749938964844
11.263538926066715,-0.3703919947147369,-0.7593280076980591,-0.6490399837493896,33.65250015258789,21.979999542236328,-65.78250122070312
11.283616535560595,-0.3494080007076263,-0.7981239557266235,-0.6712439656257629,47.897499084472656,25.39249992370605,-67.7074966430664
11.303694145054475,-0.3311080038547516,-0.779092013835907,-0.6675840020179749,64.45249938964844,21.542499542236328,-70.03500366210938
11.323771754548355,-0.3106119930744171,-0.7990999817848206,-0.6451359987258911,69.19499969482422,7.490000247955322,-72.16999816894531
11.343849364042235,-0.3008520007133484,-0.7986119985580444,-0.5970680117607117,70.40250396728516,-4.987500190734863,-74.9000015258789
11.363926973536115,-0.3108559846878052,-0.7507879734039307,-0.5526599884033203,70.41999816894531,-9.1875,-83.8949966430664
11.384004583029995,-0.2923119962215423,-0.7576199769973755,-0.5402159690856934,75.3550033569336,-7.105000019073486,-91.73500061035156
11.404082192523875,-0.2332639992237091,-0.5880399942398071,-0.4004040062427521,93.11750030517578,-7.822500228881836,-93.8000030517578
11.424159802017755,-0.2110600024461746,-0.6468439698219299,-0.4396879971027374,60.375,-17.395000457763672,-77.69999694824219
11.444237411511635,-0.2027639895677566,-0.7017439603805542,-0.4999559819698334,52.41249847412109,-27.667499542236328,-66.04499816894531
11.464315021005515,-0.1908079981803894,-0.7693319916725159,-0.5424119830131531,54.23250198364258,-29.69750022888184,-61.98500061035156
11.484392630499395,-0.1708000004291534,-0.8010519742965698,-0.6375719904899597,59.692501068115234,-8.662500381469727,-67.09500122070312
11.504470239993275,-0.1988599896430969,-0.7002800107002258,-0.6492840051651001,64.01499938964844,1.8550000190734863,-67.12999725341797
11.524547849487154,-0.1254159957170486,-0.7890959978103638,-0.6207360029220581,32.689998626708984,-8.3125,-52.92000198364258
11.544625458981034,-0.1219999939203262,-0.8608319759368896,-0.6448919773101807,21.50749969482422,-12.3725004196167,-44.99250030517578
11.564703068474914,-0.1883679926395416,-0.8535119891166687,-0.6136599779129028,26.6875,-5.84499979019165,-51.625
11.584780677968794,-0.2217959910631179,-0.8649799823760986,-0.5109359622001648,18.82999992370605,-16.520000457763672,-59.622501373291016
11.604858287462674,-0.1449359953403473,-0.8486319780349731,-0.4389559924602508,19.31999969482422,-27.26499938964844,-62.790000915527344
11.624935896956554,-0.0392839983105659,-0.7842159867286682,-0.4233399927616119,38.4474983215332,-27.790000915527344,-63.82250213623047
11.645013506450434,0.0378200002014637,-0.7124800086021423,-0.4165079891681671,39.7599983215332,-36.102500915527344,-59.290000915527344
11.665091115944314,0.0180559996515512,-0.6951559782028198,-0.411871999502182,41.58000183105469,-39.025001525878906,-55.43999862670898
11.685168725438194,-0.0644159987568855,-0.7132120132446289,-0.403331995010376,36.837501525878906,-43.78499984741211,-52.272499084472656
11.705246334932074,-0.1088239997625351,-0.8400920033454895,-0.3567279875278473,31.255001068115234,-57.34749984741211,-47.70500183105469
11.725323944425954,-0.1202920004725456,-0.8549759984016418,-0.3318399786949157,34.98250198364258,-68.44249725341797,-42.27999877929688
11.745401553919834,-0.1110199987888336,-0.9459879994392396,-0.3164680004119873,32.497501373291016,-78.87249755859375,-38.272499084472656
11.765479163413714,-0.0827159956097602,-0.9823439717292786,-0.3659999966621399,36.084999084472656,-85.69750213623047,-41.19499969482422
11.785556772907594,-0.0490439981222152,-0.9601399898529052,-0.4326120018959045,41.66749954223633,-88.25250244140625,-45.60499954223633
11.805634382401474,-0.0026839999482035,-0.9152439832687378,-0.4472520053386688,44.65999984741211,-88.62000274658203,-49.26250076293945
11.825711991895353,0.0775920003652572,-0.8952359557151794,-0.4091880023479461,45.36000061035156,-87.43000030517578,-50.837501525878906
11.845789601389233,0.0417240001261234,-0.8252080082893372,-0.3838119804859161,48.0724983215332,-78.68000030517578,-50.71500015258789
11.865867210883113,0.0570959970355033,-0.876691997051239,-0.3093920052051544,35.630001068115234,-88.4800033569336,-47.07500076293945
11.885944820376993,-0.0029279999434947,-0.8637599945068359,-0.2908479869365692,30.59000015258789,-90.70249938964844,-46.70750045776367
11.906022429870873,-0.0097599998116493,-0.8864519596099854,-0.2896279990673065,33.67000198364258,-90.16000366210938,-47.75749969482422
11.926100039364753,0.0551439970731735,-0.9032880067825316,-0.3079279959201813,28.927499771118164,-87.8499984741211,-45.8849983215332
11.946177648858633,0.0824719965457916,-0.913047969341278,-0.3267160058021545,26.31999969482422,-78.01499938964844,-41.685001373291016
11.966255258352513,0.1063839942216873,-0.856440007686615,-0.301827996969223,30.274999618530277,-72.20500183105469,-37.869998931884766
11.986332867846393,0.1471319943666458,-0.7649399638175964,-0.2837719917297363,32.27000045776367,-69.07250213623047,-30.362499237060547
12.006410477340273,0.2105719894170761,-0.7764079570770264,-0.2335079908370971,19.89750099182129,-64.55750274658203,-22.049999237060547
12.026488086834153,0.1847079992294311,-0.9091439843177797,-0.1276119947433471,12.494999885559082,-60.72499847412109,-20.982500076293945
12.046565696328033,0.1207799986004829,-0.9933239817619324,-0.1112639978528022,17.46500015258789,-57.18999862670898,-25.30500030517578
12.066643305821913,0.0100039998069405,-0.9828319549560548,-0.224480003118515,23.64249992370605,-45.8849983215332,-19.582500457763672
12.086720915315793,0.1847079992294311,-1.1255719661712646,-0.1173639968037605,21.89249992370605,-43.522499084472656,-3.867500066757202
12.106798524809673,0.2166720032691955,-1.0892159938812256,-0.0968680009245872,35.8224983215332,-49.57749938964844,-20.05500030517578
12.126876134303552,0.1366399973630905,-1.0211399793624878,-0.4130919873714447,28.630001068115234,-41.352500915527344,-27.877500534057617
12.146953743797432,0.0961359962821006,-1.1848639249801636,-0.6875919699668884,-7.192500114440918,-16.572500228881836,-11.357500076293944
12.167031353291312,0.399427980184555,-1.497183918952942,-0.5428999662399292,-41.282501220703125,-7.332499980926514,2.940000057220459
12.187108962785192,0.493367999792099,-1.511091947555542,-0.480923980474472,-21.122499465942383,-7.157500267028809,-7.507500171661377
12.207186572279072,0.2937760055065155,-1.1670520305633545,-0.456279993057251,23.8174991607666,-7.822500228881836,-18.14750099182129
12.227264181772952,-0.0710039958357811,-0.7890959978103638,-0.4206559956073761,46.34000015258789,-9.625,-14.40250015258789
12.247341791266832,-0.2925559878349304,-0.5607119798660278,-0.3323279917240143,41.9474983215332,-14.612500190734863,0.2450000047683715
12.267419400760712,-0.2561999857425689,-0.5743759870529175,-0.281819999217987,14.647500038146973,-23.48500061035156,8.260000228881836
12.287497010254592,-0.0231800004839897,-0.7612800002098083,-0.2635200023651123,-8.75,-30.57250022888184,-1.2949999570846558
12.307574619748472,0.104432001709938,-0.9569680094718932,-0.2913359999656677,-14.175000190734863,-26.72249984741211,-4.392499923706055
12.327652229242352,0.1898320019245147,-1.1165440082550049,-0.3445279896259308,-21.94499969482422,-22.26000022888184,6.300000190734863
12.347729838736232,0.1842200011014938,-1.0809199810028076,-0.3423320055007934,2.502500057220459,-2.047499895095825,4.077499866485596
12.367807448230112,0.1615279912948608,-1.0577399730682373,-0.3254959881305694,8.680000305175781,4.21750020980835,4.042500019073486
12.387885057723992,0.1554279923439026,-0.9640439748764038,-0.2335079908370971,14.4375,8.470000267028809,7.262499809265137
12.407962667217872,0.071492001414299,-0.9308599829673768,-0.2156959921121597,20.33500099182129,10.920000076293944,14.682499885559082
12.428040276711751,-0.0275719985365867,-0.8264279961585999,-0.2313119918107986,21.174999237060547,13.649999618530272,22.71500015258789
12.448117886205631,-0.0978439971804618,-0.7742120027542114,-0.2325319945812225,9.677499771118164,15.452500343322754,30.537500381469727
12.468195495699511,-0.0983319953083992,-0.8288679718971252,-0.1627479940652847,-3.622499942779541,15.925000190734863,37.6775016784668
12.488273105193391,-0.0631959959864616,-0.9340319633483888,-0.0873520001769065,-7.787499904632568,11.725000381469728,41.09000015258789
12.508350714687271,-0.0849120020866394,-0.9794159531593324,-0.0753960013389587,-0.3675000071525574,4.65500020980835,38.185001373291016
12.528428324181151,-0.114436000585556,-0.9186599850654602,-0.0856439992785453,8.837499618530273,-2.677500009536743,28.489999771118164
12.548505933675031,-0.085156001150608,-0.8464359641075134,-0.114436000585556,10.09749984741211,-7.332499980926514,14.84000015258789
12.568583543168911,-0.0439199991524219,-0.77811598777771,-0.147376000881195,5.914999961853027,-8.522500038146973,1.1200000047683716
12.588661152662791,0.0041479999199509,-0.7534719705581665,-0.1295640021562576,-3.0625,-6.982500076293945,-8.680000305175781
12.60873876215667,0.0483120009303092,-0.749567985534668,-0.0802759975194931,-10.289999961853027,-3.202500104904175,-17.815000534057617
12.62881637165055,0.0609999969601631,-0.7744559645652771,-0.062219999730587,-12.949999809265137,-1.715000033378601,-25.82999992370605
12.64889398114443,0.0258639995008707,-0.8383839726448059,-0.0868639945983886,-14.47249984741211,-4.077499866485596,-34.93000030517578
12.66897159063831,0.0004879999905824,-0.9142679572105408,-0.1232199966907501,-14.454999923706056,-4.690000057220459,-44.625
12.68904920013219,0.1544519960880279,-0.9972279667854308,-0.3472119867801666,-7.244999885559082,1.9424999952316284,-48.0724983215332
12.70912680962607,0.2481479942798614,-1.160707950592041,-0.2735239863395691,-10.779999732971191,0.0175000000745058,-42.97999954223633
12.72920441911995,0.3096359968185425,-1.3366320133209229,-0.0405040010809898,-7.332499980926514,7.367499828338623,-35.80500030517578
12.74928202861383,0.3281799852848053,-1.2692879438400269,-0.0846679955720901,8.522500038146973,27.440000534057617,-17.954999923706055
12.76935963810771,0.2708399891853332,-1.1426520347595217,-0.1805599927902221,17.447500228881836,30.467500686645508,-1.5575000047683716
12.78943724760159,0.0739319995045661,-1.1253279447555542,-0.3315959870815277,16.799999237060547,21.2450008392334,19.4950008392334
12.80951485709547,-0.1337119936943054,-1.3993399143218994,-0.3667320013046264,-17.71000099182129,15.295000076293944,48.14250183105469
12.82959246658935,-0.3728320002555847,-1.733132004737854,-0.338916003704071,-35.89250183105469,7.367499828338623,63.682498931884766
12.84967007608323,-0.3996720016002655,-1.5855119228363037,-0.3130519986152649,-5.897500038146973,2.5374999046325684,36.470001220703125
12.86974768557711,-0.2000799924135208,-1.2070679664611816,-0.2222839891910553,17.989999771118164,-3.587500095367432,-3.325000047683716
12.88982529507099,-0.0583159998059272,-0.7825079560279846,-0.2066679894924163,32.462501525878906,-2.5199999809265137,-23.957500457763672
12.90990290456487,0.0075639998540282,-0.4804359972476959,-0.2359479963779449,37.17000198364258,9.59000015258789,-26.774999618530277
12.92998051405875,0.0556319989264011,-0.3540439903736114,-0.2540040016174316,27.52750015258789,15.697500228881836,-24.604999542236328
12.95005812355263,-0.0163480006158351,-0.4840959906578064,-0.2954840064048767,3.4825000762939453,6.860000133514404,-15.050000190734863
12.97013573304651,-0.052947998046875,-0.8008080124855042,-0.2928000092506408,-21.4375,-16.082500457763672,-2.0824999809265137
12.99021334254039,-0.0749079957604408,-1.1177639961242676,-0.3108559846878052,-30.030000686645508,-32.462501525878906,8.102499961853027
13.01029095203427,-0.0568519979715347,-1.2870999574661257,-0.3089039921760559,-24.36000061035156,-41.54500198364258,10.6225004196167
13.03036856152815,0.0483120009303092,-1.1775439977645874,-0.2400960028171539,-3.4649999141693115,-46.462501525878906,-1.7675000429153442
13.05044617102203,0.0675880014896392,-1.0008879899978638,-0.2984119951725006,14.857500076293944,-38.0099983215332,-23.39750099182129
13.07052378051591,0.0678320005536079,-0.8710799813270569,-0.3086600005626678,17.010000228881836,-36.66249847412109,-36.17250061035156
13.09060139000979,0.061243999749422,-0.7432239651679993,-0.297679990530014,11.602499961853027,-34.58000183105469,-36.3650016784668
13.11067899950367,0.0378200002014637,-0.7063800096511841,-0.2823079824447632,1.8200000524520876,-30.04750061035156,-28.15749931335449
13.13075660899755,0.0448959991335868,-0.7961719632148743,-0.2308239936828613,-13.93000030517578,-31.63999938964844,-19.02250099182129
13.150834218491429,0.0834480002522468,-0.9040200114250184,-0.2276519984006881,-20.177499771118164,-33.162498474121094,-13.282500267028809
13.170911827985309,0.1405439972877502,-0.9537959694862366,-0.2005679905414581,-12.1274995803833,-32.20000076293945,-13.0024995803833
13.190989437479189,0.1620160043239593,-0.879863977432251,-0.205935999751091,1.1375000476837158,-31.27250099182129,-14.962499618530272
13.211067046973069,0.1398119926452636,-0.904263973236084,-0.2069119960069656,6.195000171661377,-33.18000030517578,-15.34749984741211
13.231144656466949,0.0546559989452362,-0.8220359683036804,-0.1666519939899444,14.962499618530272,-36.942501068115234,-15.977499961853027
13.251222265960829,0.0060999998822808,-0.8327719569206238,-0.1756799966096878,3.8324999809265137,-41.22999954223633,-6.702499866485596
13.271299875454709,0.0746639966964721,-0.884988009929657,-0.2271640002727508,4.514999866485596,-43.067501068115234,-0.699999988079071
13.291377484948589,0.2195999920368194,-0.9979599714279176,-0.1861719936132431,10.56999969482422,-38.23749923706055,-2.117500066757202
13.311455094442469,0.1864160001277923,-0.9562360048294068,-0.1834879964590072,17.149999618530273,-39.07749938964844,-4.164999961853027
13.331532703936348,0.1232199966907501,-0.9745360016822816,-0.1766559928655624,17.3075008392334,-38.81499862670898,-7.210000038146973
13.351610313430228,0.1054079979658126,-0.9762439727783204,-0.1642120033502578,14.192500114440918,-38.1150016784668,-9.274999618530272
13.371687922924108,0.1881240010261535,-1.000643968582153,-0.1525000035762787,12.337499618530272,-37.65999984741211,-9.730000495910645
13.391765532417988,0.230335995554924,-0.9713639616966248,-0.1166319996118545,13.49250030517578,-40.58250045776367,-10.920000076293944
13.411843141911868,0.2098399996757507,-0.9855159521102904,-0.0768599957227706,5.582499980926514,-49.03499984741211,-9.414999961853027
13.431920751405748,0.2152079939842224,-1.1023919582366943,-0.2469279915094375,-6.824999809265137,-54.459999084472656,-8.557499885559082
13.451998360899628,0.0763719975948333,-1.219267964363098,-0.5931639671325684,-13.5625,-43.067501068115234,-8.015000343322754
13.472075970393508,0.2425359934568405,-1.5440319776535034,-0.5350919961929321,-32.900001525878906,-33.1974983215332,-6.072500228881836
13.492153579887388,0.3442839980125427,-1.688723921775818,-0.5687639713287354,-36.3650016784668,-16.782499313354492,-23.20499992370605
13.512231189381268,0.2535159885883331,-1.5174360275268557,-0.5277720093727112,-2.047499895095825,1.0149999856948853,-43.20750045776367
13.532308798875148,0.1219999939203262,-1.1175199747085571,-0.4960519969463348,36.872501373291016,3.884999990463257,-45.37749862670898
13.552386408369028,-0.1337119936943054,-0.7424919605255127,-0.4445679783821106,59.23749923706055,5.740000247955322,-26.915000915527344
13.572464017862908,-0.2764520049095154,-0.6241520047187805,-0.3489199876785278,52.1150016784668,-2.065000057220459,-9.55500030517578
13.592541627356788,-0.2225279957056045,-0.5128880143165588,-0.1861719936132431,38.63999938964844,-12.600000381469728,-2.117500066757202
13.612619236850668,-0.1649439930915832,-0.582427978515625,-0.1649439930915832,11.44499969482422,-22.45249938964844,6.824999809265137
13.632696846344547,0.0688079968094825,-1.0223599672317505,-0.1786080002784729,-22.662500381469727,-36.64500045776367,18.899999618530277
13.652774455838427,0.1654319912195205,-1.2146320343017578,-0.3008520007133484,-9.852499961853027,-19.46000099182129,14.682499885559082
13.672852065332307,0.2012999951839447,-1.0760400295257568,-0.2557120025157928,7.507500171661377,-5.949999809265137,7.909999847412109
13.692929674826187,0.08661999553442,-0.9911279678344728,-0.3498959839344024,16.135000228881836,4.550000190734863,8.78499984741211
13.713007284320067,0.0768599957227706,-0.9064599871635436,-0.2969479858875274,24.36000061035156,1.662500023841858,4.882500171661377
13.733084893813947,0.047580000013113,-0.8083719611167908,-0.2315559983253479,24.56999969482422,3.884999990463257,5.302500247955322
13.753162503307827,0.0058559998869895,-0.7520079612731934,-0.1886119991540908,14.612500190734863,6.632500171661377,10.779999732971191
13.773240112801707,-0.0273279994726181,-0.7764079570770264,-0.1405439972877502,-1.5575000047683716,4.392499923706055,15.34749984741211
13.793317722295587,-0.0490439981222152,-0.8332599997520447,-0.1351760029792785,-12.8100004196167,1.1549999713897705,17.5
13.813395331789467,-0.0424560010433197,-0.8693720102310181,-0.1256600022315979,-14.017499923706056,0.5600000023841858,16.012500762939453
13.833472941283347,-0.0126879997551441,-0.88401198387146,-0.128831997513771,-10.0625,0.1050000041723251,11.619999885559082
13.853550550777227,0.047580000013113,-0.8910880088806152,-0.1581119894981384,-8.505000114440918,1.1549999713897705,7.752500057220459
13.873628160271107,0.1307840049266815,-0.8774240016937256,-0.1747040003538131,-9.414999961853027,2.765000104904175,0.4025000035762787
13.893705769764987,0.1927599906921386,-0.8827919960021973,-0.1312720030546188,-14.770000457763672,7.682499885559082,-12.792500495910645
13.913783379258867,0.1505479961633682,-0.9237839579582214,-0.1146799996495246,-14.140000343322754,9.65999984741211,-16.922500610351562
13.933860988752746,0.1097999960184097,-0.9584319591522216,-0.1078479960560798,-11.987500190734863,12.442500114440918,-20.020000457763672
13.953938598246626,0.1193159967660904,-0.9713639616966248,-0.1324919909238815,-9.55500030517578,14.734999656677246,-20.93000030517578
13.974016207740506,0.1583559960126876,-0.9950319528579712,-0.1661639958620071,-8.697500228881836,21.01749992370605,-15.8725004196167
13.994093817234386,0.2152079939842224,-1.0160160064697266,-0.181779995560646,-6.824999809265137,26.967500686645508,-9.414999961853027
14.014171426728266,0.1803160011768341,-1.0411479473114014,-0.2154520004987716,-3.884999990463257,29.69750022888184,-4.672500133514404
14.034249036222146,0.1171199977397918,-1.034559965133667,-0.2064239978790283,0.332500010728836,28.45499992370605,-2.572499990463257
14.054326645716026,0.1293199956417083,-1.0030839443206787,-0.1642120033502578,3.430000066757202,29.662500381469727,-1.8025000095367432
14.074404255209906,0.1385920047760009,-1.0538359880447388,-0.0795440003275871,-3.132499933242798,32.88249969482422,4.865000247955322
14.094481864703786,0.1578679978847503,-1.1712000370025637,-0.0688079968094825,-4.445000171661377,37.65999984741211,14.385000228881836
14.114559474197666,0.0378200002014637,-1.1733959913253784,-0.2073999941349029,-5.284999847412109,41.09000015258789,21.979999542236328
14.134637083691546,-0.0605119988322258,-1.2402520179748535,-0.3081719875335693,-5.949999809265137,33.529998779296875,33.1974983215332
14.154714693185426,-0.1210239976644516,-1.3446840047836304,-0.3152479827404022,-11.480000495910645,17.167499542236328,45.48250198364258
14.174792302679306,-0.2020319998264312,-1.4730279445648191,-0.2827959954738617,-10.797499656677246,1.7675000429153442,47.86249923706055
14.194869912173186,-0.1956879943609237,-1.2485480308532717,-0.2122799903154373,18.357500076293945,-4.934999942779541,20.405000686645508
14.214947521667066,-0.0993079990148544,-1.0343159437179563,-0.236191987991333,25.024999618530277,-4.409999847412109,-6.912499904632568
14.235025131160945,0.0012199999764561,-0.7395640015602112,-0.2762079834938049,26.75749969482422,6.807499885559082,-21.80500030517578
14.255102740654825,0.1212679967284202,-0.5204519629478455,-0.3174439966678619,19.0049991607666,23.274999618530277,-20.352500915527344
14.275180350148705,0.1468880027532577,-0.4496919810771942,-0.4387120008468628,1.2949999570846558,35.647499084472656,-8.260000228881836
14.295257959642585,0.1942239999771118,-0.6627039909362793,-0.4836079776287079,-26.46000099182129,21.542499542236328,10.010000228881836
14.315335569136465,0.1788519918918609,-0.9501360058784484,-0.4823879897594452,-36.557498931884766,8.662500381469727,25.96999931335449
14.335413178630345,0.0971119999885559,-1.1277679204940796,-0.4150439798831939,-36.032501220703125,1.5575000047683716,30.712499618530277
14.355490788124225,0.0690519958734512,-1.148751974105835,-0.3508719801902771,-29.17250061035156,-0.7175000309944153,17.587499618530273
14.375568397618105,0.0217159986495971,-0.9406200051307678,-0.3808839917182922,-13.614999771118164,6.684999942779541,-7.927500247955322
14.395646007111985,-0.0180559996515512,-0.7359039783477783,-0.3686839938163757,-5.494999885559082,11.357500076293944,-22.9424991607666
14.415723616605865,-0.0470919981598854,-0.632203996181488,-0.314516007900238,-4.007500171661377,13.877500534057615,-28.489999771118164
14.435801226099745,-0.0256199985742568,-0.5343599915504456,-0.1607960015535354,0.7175000309944153,13.05500030517578,-29.38249969482422
14.455878835593625,0.0605119988322258,-0.4379799962043762,-0.1571359932422638,6.335000038146973,9.642499923706056,-20.457500457763672
14.475956445087505,0.1007720008492469,-0.3689279854297638,-0.2735239863395691,4.199999809265137,7.192500114440918,-6.159999847412109
14.496034054581385,0.0573399998247623,-0.366487979888916,-0.2583959996700287,-38.744998931884766,-3.4825000762939453,19.18000030517578
14.516111664075265,-0.003171999938786,-0.5555880069732666,-0.1371279954910278,-32.30500030517578,1.1200000047683716,11.322500228881836
14.536189273569144,0.0029279999434947,-0.8830359578132629,-0.08661999553442,-3.430000066757202,0.4025000035762787,-3.797500133514404
14.556266883063024,0.0290360003709793,-0.977463960647583,-0.1827559918165207,28.57749938964844,-13.230000495910645,-4.462500095367432
14.576344492556904,0.0807639956474304,-1.0438319444656372,-0.2127679884433746,39.165000915527344,-25.30500030517578,-0.6299999952316284
14.596422102050784,0.0893040001392364,-1.1865719556808472,-0.1842200011014938,28.227500915527344,-19.19750022888184,-7.559999942779541
14.616499711544664,0.1544519960880279,-1.303936004638672,-0.2601040005683899,9.712499618530272,-9.292500495910645,-9.082500457763672
14.636577321038544,0.2022759914398193,-1.702143907546997,-0.6278119683265686,-13.510000228881836,-10.885000228881836,5.09250020980835
14.656654930532424,0.2964600026607513,-1.893683910369873,-0.6744160056114197,-4.65500020980835,-15.119999885559082,18.76000022888184
14.676732540026304,0.3923519849777221,-2.142076015472412,-0.3825919926166534,-21.57749938964844,-36.59249877929688,36.71500015258789
14.696810149520184,0.0929640009999275,-2.7630560398101807,-0.6187840104103088,-56.75249862670898,-27.790000915527344,37.625
14.716887759014064,0.109555996954441,-2.887984037399292,-0.7893399596214294,-51.32749938964844,-15.015000343322754,16.11750030517578
14.736965368507944,0.4540839791297912,-2.898963928222656,-0.6485520005226135,-39.07749938964844,-7.297500133514404,19.18000030517578
14.757042978001824,0.4391999840736389,-2.8684639930725098,-0.8249639868736267,-27.93000030517578,-0.5950000286102295,25.602500915527344
14.777120587495704,0.3067080080509186,-2.598844051361084,-0.8830359578132629,6.929999828338623,14.157500267028809,1.9424999952316284
14.797198196989584,-0.037331998348236,-1.6108880043029783,-0.7473719716072083,74.2699966430664,34.26499938964844,-35.647499084472656
14.817275806483464,-0.2393639981746673,-1.0169919729232788,-0.4543280005455017,90.51000213623048,22.540000915527344,-41.47499847412109
14.837353415977343,-0.4421280026435852,-0.3972319960594177,-0.1390800029039383,101.65750122070312,17.604999542236328,-35.70000076293945
14.857431025471223,-0.4545719921588897,-0.0600240007042884,-0.0561200007796287,89.40750122070312,5.547500133514404,-27.790000915527344
14.877508634965103,-0.1998360008001327,0.2742559909820556,-0.115167997777462,88.63749694824219,-8.977499961853027,-29.71500015258789
14.897586244458983,0.0036599999293684,0.5265519618988037,-0.2313119918107986,78.95999908447266,-11.829999923706056,-32.51499938964844
14.917663853952863,0.1022359952330589,0.607804000377655,-0.196175992488861,89.54750061035156,-2.992500066757202,-33.51250076293945
14.937741463446743,0.1622599959373474,0.4655520021915436,0.1190719977021217,50.78499984741211,-3.815000057220459,-22.5575008392334
14.957819072940623,0.2034959942102432,-0.2471719980239868,-0.0483120009303092,8.207500457763672,23.729999542236328,-17.552499771118164
14.977896682434503,0.1781200021505355,-0.196175992488861,-0.0131759997457265,5.144999980926514,24.552499771118164,-19.530000686645508
14.997974291928383,0.0595359988510608,-0.1234639957547187,0.0080519998446106,3.0274999141693115,14.699999809265137,-16.747499465942383
15.018051901422263,-0.0307439994066953,-0.0275719985365867,0.0241560004651546,10.114999771118164,6.982500076293945,-14.210000038146973
15.038129510916143,-0.1280999928712844,0.1078479960560798,0.0007319999858736,15.260000228881836,4.497499942779541,-12.6875
15.058207120410023,-0.1339560002088546,0.1507920026779174,0.0129319997504353,7.945000171661377,3.954999923706055,-7.210000038146973
15.078284729903903,0.0158599987626075,-0.0761279985308647,0.0500199981033802,-0.3499999940395355,0.1574999988079071,-5.949999809265137
15.098362339397783,0.0175679996609687,-0.1527439951896667,0.0319640003144741,8.067500114440918,0.9275000095367432,-10.605000495910645
15.118439948891663,-0.0290360003709793,-0.13468798995018,-0.0292799994349479,19.915000915527344,-1.5924999713897705,-19.670000076293945
15.138517558385542,-0.010491999797523,-0.1061399951577186,-0.1444479972124099,28.82250022888184,1.225000023841858,-25.217500686645508
15.158595167879422,0.0024399999529123,-0.3137840032577514,-0.4672600030899048,6.352499961853027,14.822500228881836,-16.764999389648438
15.178672777373302,-0.1856839954853058,-0.8264279961585999,-0.8098359704017639,-28.40250015258789,25.40999984741211,2.0299999713897705
15.198750386867182,0.1595759987831115,-2.354356050491333,-0.3186639845371246,-124.23249816894533,-35.80500030517578,47.98500061035156
15.218827996361062,1.3210159540176392,-3.982323884963989,0.2657159864902496,-137.49749755859375,-72.66000366210938,68.07499694824219
15.238905605854942,-0.201787993311882,-2.505147933959961,-1.004547953605652,23.239999771118164,36.505001068115234,-1.784999966621399
15.258983215348822,-0.423583984375,-1.954684019088745,-0.9091439843177797,2.5374999046325684,24.09749984741211,0.2800000011920929
15.279060824842702,0.501908004283905,-2.643983840942383,0.2191119939088821,-38.08000183105469,-34.89500045776367,19.19750022888184
15.299138434336582,0.4426159858703613,-2.0108039379119877,-0.4413959980010986,42.630001068115234,0.9100000262260436,-17.114999771118164
15.319216043830462,0.5973119735717773,-1.3793319463729858,-0.2008119970560073,56.84000015258789,7.787499904632568,-26.0575008392334
15.339293653324342,0.2108159959316253,-1.1782759428024292,-0.3198840022087097,37.92250061035156,3.1675000190734863,-14.105000495910645
15.359371262818222,0.0900359973311424,-1.2656279802322388,-0.2010560035705566,3.6575000286102295,8.942500114440918,0.4200000166893005
15.379448872312102,0.0412359982728958,-0.8381400108337402,-0.0090279998257756,10.167500495910645,8.539999961853027,-7.962500095367432
15.399526481805982,0.0363559983670711,-0.7427359819412231,-0.0353799983859062,-9.9399995803833,-9.957500457763672,-0.9100000262260436
15.419604091299862,-0.0131759997457265,-0.7566440105438232,-0.0961359962821006,-13.6850004196167,-15.78499984741211,9.712499618530272
15.439681700793741,0.3013399839401245,-0.6746599674224854,-0.1676279902458191,-15.592499732971191,-22.592500686645508,12.914999961853027
15.459759310287621,0.1922719925642013,-0.7049160003662109,-0.1498159915208816,-12.197500228881836,-15.78499984741211,17.815000534057617
15.479836919781501,0.2066679894924163,-0.7534719705581665,-0.206179991364479,-16.274999618530273,-12.074999809265137,25.602500915527344
15.499914529275381,0.1510359942913055,-0.8884040117263794,-0.2676680088043213,-34.10750198364258,-1.4524999856948853,30.25749969482422
15.519992138769261,0.1581119894981384,-1.011379957199097,-0.1798280030488968,-39.88249969482422,2.2925000190734863,24.97249984741211
15.540069748263141,0.1937360018491745,-0.993079960346222,-0.118827998638153,-27.457500457763672,1.6100000143051147,13.755000114440918
15.560147357757021,0.1581119894981384,-0.95306396484375,-0.105163998901844,-14.332500457763672,-2.309999942779541,7.909999847412109
15.580224967250901,0.1090679988265037,-0.935983955860138,-0.1190719977021217,-9.274999618530272,-4.952499866485596,5.949999809265137
15.600302576744781,0.1227319985628128,-1.010159969329834,-0.167383998632431,-12.25,-6.054999828338623,6.440000057220459
15.62038018623866,0.1141919940710067,-1.02675199508667,-0.1827559918165207,-9.15250015258789,-5.389999866485596,4.322500228881836
15.64045779573254,0.0661239996552467,-1.001863956451416,-0.1890999972820282,-7.980000019073486,-5.355000019073486,1.3125
15.66053540522642,0.099551998078823,-1.0187000036239624,-0.2476599961519241,-9.1875,-15.4350004196167,-9.869999885559082
15.6806130147203,0.0871080011129379,-0.969655990600586,-0.2078879922628402,-2.8350000381469727,-20.020000457763672,-18.51499938964844
15.70069062421418,0.0056119998916983,-0.8898679614067078,-0.1890999972820282,1.2074999809265137,-26.915000915527344,-22.90749931335449
15.72076823370806,-0.0656360015273094,-0.8801079988479614,-0.2130119949579239,-1.715000033378601,-33.337501525878906,-19.354999542236328
15.74084584320194,-0.0573399998247623,-0.9315919876098632,-0.2110600024461746,-6.912499904632568,-41.5625,-9.835000038146973
15.76092345269582,0.0051239999011158,-0.9869799613952636,-0.2227720022201538,-9.55500030517578,-49.244998931884766,3.849999904632568
15.7810010621897,0.1032119989395141,-1.0094280242919922,-0.2503440082073211,-7.664999961853027,-53.165000915527344,13.614999771118164
15.80107867168358,0.196175992488861,-1.0028399229049685,-0.2640079855918884,-4.025000095367432,-51.93999862670898,15.260000228881836
15.82115628117746,0.2117919921875,-0.97843998670578,-0.2464399933815002,-1.5225000381469729,-49.06999969482422,12.774999618530272
15.84123389067134,0.1610399931669235,-1.0177240371704102,-0.1595759987831115,2.3975000381469727,-45.67499923706055,10.010000228881836
15.86131150016522,0.1307840049266815,-1.001863956451416,-0.1261480003595352,11.287500381469728,-39.79500198364258,8.137499809265137
15.8813891096591,0.1117519959807396,-0.9579439759254456,-0.1422519981861114,12.512499809265137,-32.935001373291016,9.520000457763672
15.90146671915298,0.0844239965081214,-0.9393999576568604,-0.1280999928712844,7.385000228881836,-30.13500022888184,12.61750030517578
15.92154432864686,0.0397720001637935,-0.9179279804229736,-0.1168759986758232,5.372499942779541,-30.11750030517578,12.932499885559082
15.94162193814074,0.0148839997127652,-0.9210999608039856,-0.1193159967660904,1.8025000095367432,-29.977500915527344,12.074999809265137
15.96169954763462,0.0297679994255304,-0.9469639658927916,-0.1363959908485412,-3.640000104904175,-29.38249969482422,11.970000267028809
15.9817771571285,0.0448959991335868,-0.9803919792175292,-0.1434720009565353,-7.0,-29.71500015258789,11.654999732971191
16.00185476662238,0.0385520011186599,-0.9882000088691713,-0.1551840007305145,-7.507500171661377,-29.662500381469727,10.850000381469728
16.02193237611626,0.0134199997410178,-0.9952759742736816,-0.1456679999828338,-7.857500076293945,-29.854999542236328,10.010000228881836
16.042009985610143,-0.0243999995291233,-0.9979599714279176,-0.1363959908485412,-6.667500019073486,-31.762500762939453,7.315000057220459
16.062087595104025,-0.0692960023880004,-0.9803919792175292,-0.1481079906225204,-4.199999809265137,-33.057498931884766,3.9375
16.082165204597906,-0.0553879998624324,-0.9481839537620544,-0.1566479951143264,-2.9574999809265137,-33.6875,0.612500011920929
16.102242814091788,0.0195199996232986,-0.933788001537323,-0.1564040035009384,-4.550000190734863,-32.375,-3.132499933242798
16.12232042358567,0.0912560001015663,-0.9313479661941528,-0.1681160032749176,-7.0,-28.332500457763672,-7.0
16.14239803307955,0.1320039927959442,-0.9342759847640992,-0.1710439920425415,-7.927500247955322,-23.3799991607666,-10.797499656677246
16.162475642573433,0.1054079979658126,-0.9606279730796814,-0.1522559970617294,-7.980000019073486,-18.934999465942383,-14.94499969482422
16.182553252067315,0.0834480002522468,-0.9952759742736816,-0.1381039917469024,-6.894999980926514,-15.452500343322754,-19.4424991607666
16.202630861561197,0.0768599957227706,-0.9845399856567384,-0.153231993317604,-5.005000114440918,-11.619999885559082,-23.747499465942383
16.22270847105508,0.0544119998812675,-0.9594079852104188,-0.1812919974327087,-3.184999942779541,-8.242500305175781,-23.887500762939453
16.24278608054896,0.0771040022373199,-0.9725840091705322,-0.2154520004987716,-4.235000133514404,-5.880000114440918,-17.97249984741211
16.262863690042842,0.0195199996232986,-1.2863680124282837,-0.2723039984703064,-4.130000114440918,-5.652500152587891,-5.704999923706055
16.282941299536724,0.006343999877572,-1.246840000152588,-0.2005679905414581,5.757500171661377,-5.494999885559082,-5.949999809265137
16.303018909030605,0.0324519984424114,-1.1001960039138794,-0.1444479972124099,13.230000495910645,-2.0299999713897705,-6.019999980926514
16.323096518524487,0.0431879982352256,-1.002351999282837,-0.1783639937639236,12.25,5.442500114440918,-8.557499885559082
16.34317412801837,0.0793000012636184,-0.9376919865608216,-0.2230159938335418,6.912499904632568,8.855000495910645,-15.81999969482422
16.36325173751225,0.0463600009679794,-0.9389119744300842,-0.2593719959259033,-1.784999966621399,12.039999961853027,-18.795000076293945
16.383329347006132,-0.0278159994632005,-0.9515999555587769,-0.2191119939088821,-7.595000267028809,12.792500495910645,-18.375
16.403406956500014,-0.1234639957547187,-0.9054839611053468,-0.2025199979543686,-8.802499771118164,7.945000171661377,-19.232500076293945
16.423484565993896,-0.1725080013275146,-0.9081679582595824,-0.2117919921875,-13.475000381469728,-2.484999895095825,-21.262500762939453
16.443562175487777,-0.1041879951953888,-0.9652639627456664,-0.2178919911384582,-14.682499885559082,-14.157500267028809,-23.8174991607666
16.46363978498166,-0.0451399981975555,-0.9611159563064576,-0.2100839912891388,-6.212500095367432,-21.40250015258789,-25.725000381469727
16.48371739447554,-0.0380639992654323,-0.8879159688949585,-0.205935999751091,3.0975000858306885,-22.207500457763672,-22.5575008392334
16.503795003969422,-0.033671997487545,-0.8051999807357788,-0.2174039930105209,7.595000267028809,-21.717500686645508,-16.327499389648438
16.523872613463304,0.0046359999105334,-0.7612800002098083,-0.2686440050601959,6.352499961853027,-21.979999542236328,-7.804999828338623
16.543950222957186,0.0795440003275871,-0.8027600049972534,-0.3379400074481964,2.502500057220459,-24.01000022888184,2.484999895095825
16.564027832451067,0.1085800006985664,-0.961359977722168,-0.3879599869251251,1.3300000429153442,-27.57999992370605,10.605000495910645
16.58410544194495,0.1681160032749176,-1.115567922592163,-0.3540439903736114,3.569999933242798,-31.7450008392334,11.322500228881836
16.60418305143883,0.1556719988584518,-1.2051160335540771,-0.2866999804973602,6.965000152587891,-32.83000183105469,3.7100000381469727
16.624260660932713,0.0936959981918335,-1.1948679685592651,-0.2827959954738617,10.8149995803833,-34.352500915527344,-11.952500343322754
16.644338270426594,0.1019919961690902,-1.1309399604797363,-0.2749879956245422,13.212499618530272,-37.46749877929688,-27.895000457763672
16.664415879920476,0.1305399984121322,-1.034559965133667,-0.2671799957752228,17.149999618530273,-40.442501068115234,-36.994998931884766
16.684493489414358,0.0724679976701736,-0.918172001838684,-0.3091479837894439,20.49250030517578,-44.69499969482422,-41.317501068115234
16.70457109890824,0.0878399983048439,-0.8378959894180298,-0.2871879935264587,16.082500457763672,-51.834999084472656,-40.897499084472656
16.72464870840212,0.0497759990394115,-0.8371639847755432,-0.2803559899330139,11.585000038146973,-58.88750076293945,-35.349998474121094
16.744726317896003,-0.0117119997739791,-0.8427760004997253,-0.2464399933815002,7.227499961853027,-68.70500183105469,-29.75
16.764803927389885,-0.0483120009303092,-0.9262239933013916,-0.224480003118515,0.7350000143051147,-80.44750213623047,-26.4950008392334
16.784881536883766,-0.0304999984800815,-0.9906399846076964,-0.2603479921817779,-2.117500066757202,-85.19000244140625,-25.82999992370605
16.804959146377648,0.0468479990959167,-1.070915937423706,-0.3779560029506683,-2.240000009536743,-81.23500061035156,-28.927499771118164
16.82503675587153,0.1695799976587295,-0.990884006023407,-0.3579480051994324,8.539999961853027,-71.4175033569336,-35.40250015258789
16.84511436536541,0.240339994430542,-0.9723399877548218,-0.2642520070075989,11.30500030517578,-72.43250274658203,-36.3650016784668
16.865191974859293,0.2386319935321808,-0.8461920022964478,-0.2496119886636734,15.032500267028809,-72.57250213623047,-34.404998779296875
16.885269584353175,0.210327997803688,-0.8569279909133911,-0.1398119926452636,8.050000190734863,-65.94000244140625,-29.1200008392334
16.905347193847057,0.2022759914398193,-0.7820199728012085,-0.013663999736309,1.4350000619888306,-67.32250213623047,-20.05500030517578
16.92542480334094,0.2254559993743896,-0.8315519690513611,-0.1639679968357086,-8.119999885559082,-68.09249877929688,-7.857500076293945
16.94550241283482,0.2418039888143539,-0.938423991203308,-0.1544519960880279,-6.737500190734863,-64.24250030517578,-0.612500011920929
16.9655800223287,0.2398519963026046,-0.994055986404419,-0.240339994430542,6.912499904632568,-60.375,1.8550000190734863
16.985657631822583,0.2264319956302642,-1.0582280158996582,-0.2369239926338195,18.270000457763672,-53.095001220703125,4.409999847412109
17.005735241316465,0.1783639937639236,-1.0975120067596436,-0.2471719980239868,29.38249969482422,-48.0724983215332,1.3300000429153442
17.025812850810347,0.1476199924945831,-1.047003984451294,-0.2464399933815002,43.38249969482422,-41.87749862670898,-5.827499866485596
17.04589046030423,0.1583559960126876,-0.933788001537323,-0.2571759819984436,57.64500045776367,-39.7599983215332,-10.1850004196167
17.06596806979811,0.1234639957547187,-0.8259400129318237,-0.3677079975605011,58.64250183105469,-44.29249954223633,-8.71500015258789
17.086045679291992,0.0134199997410178,-1.0030839443206787,-0.3157359957695007,38.63999938964844,-53.30500030517578,-4.724999904632568
17.106123288785874,-0.0275719985365867,-1.1475319862365725,-0.2235039919614792,23.32749938964844,-64.03250122070312,-10.56999969482422
17.126200898279755,-0.0148839997127652,-1.2019439935684204,-0.3401359915733337,9.800000190734863,-73.6050033569336,-21.665000915527344
17.146278507773637,0.0251320004463195,-1.1499719619750977,-0.4052839875221252,8.71500015258789,-76.125,-30.4325008392334
17.16635611726752,0.1054079979658126,-0.9515999555587769,-0.3803959786891937,19.4950008392334,-76.51000213623047,-22.27750015258789
17.1864337267614,0.1295640021562576,-0.8330159783363342,-0.3889359831809997,18.23500061035156,-78.57499694824219,0.612500011920929
17.206511336255282,0.2430239915847778,-0.7290719747543335,-0.3850319981575012,7.962500095367432,-87.67500305175781,18.725000381469727
17.226588945749164,0.1554279923439026,-0.6536759734153748,-0.3281799852848053,5.512499809265137,-78.97750091552734,21.997499465942383
17.246666555243046,0.1307840049266815,-0.6888119578361511,-0.2696200013160705,-11.532500267028809,-76.17749786376953,18.74250030517578
17.266744164736927,0.0688079968094825,-0.838871955871582,-0.226187989115715,-32.47999954223633,-72.67749786376953,18.95249938964844
17.28682177423081,0.0619760006666183,-1.1558279991149902,-0.2747440040111542,-52.1150016784668,-73.09750366210938,22.0674991607666
17.30689938372469,0.0448959991335868,-1.3454159498214722,-0.2581520080566406,-49.227500915527344,-73.02750396728516,17.780000686645508
17.326976993218572,-0.06734399497509,-1.2614799737930298,-0.195932000875473,-17.674999237060547,-75.54750061035156,9.082500457763672
17.347054602712454,-0.1559159904718399,-1.0379760265350342,-0.2256999909877777,11.44499969482422,-81.77750396728516,0.3149999976158142
17.367132212206336,-0.2176479995250702,-0.8908439874649048,-0.2469279915094375,21.770000457763672,-85.95999908447266,-6.510000228881836
17.387209821700218,-0.1798280030488968,-0.8303319811820984,-0.2964600026607513,14.875,-89.70500183105469,-8.645000457763672
17.4072874311941,-0.0944279953837394,-0.8008080124855042,-0.3440400063991546,5.512499809265137,-85.97750091552734,-3.377500057220459
17.42736504068798,-0.0390399992465972,-0.7725039720535278,-0.3557519912719726,-10.359999656677246,-78.6624984741211,9.362500190734863
17.447442650181863,0.0490439981222152,-0.8093479871749878,-0.317931979894638,-26.424999237060547,-75.42500305175781,15.994999885559082
17.467520259675744,-0.1066280007362365,-0.884988009929657,-0.3467240035533905,-40.26750183105469,-61.52999877929688,13.737500190734863
17.487597869169626,-0.1930039972066879,-0.9115839600563048,-0.3457480072975158,-44.95750045776367,-52.81499862670898,11.77750015258789
17.507675478663508,-0.1420079916715622,-0.909875988960266,-0.3459919989109039,-44.50249862670898,-39.21749877929688,13.037500381469728
17.52775308815739,-0.0058559998869895,-0.8747400045394897,-0.3137840032577514,-40.96749877929688,-26.26749992370605,15.802499771118164
17.54783069765127,0.0539239980280399,-0.8908439874649048,-0.2366800010204315,-52.13249969482422,-24.86750030517578,17.71000099182129
17.567908307145153,-0.0344039984047412,-0.9601399898529052,-0.2239919900894165,-54.372501373291016,-18.637500762939453,12.897500038146973
17.587985916639035,-0.1973959952592849,-0.9767319560050964,-0.2193560004234314,-51.397499084472656,-13.212499618530272,2.817500114440918
17.608063526132916,-0.2366800010204315,-0.9723399877548218,-0.2735239863395691,-48.73749923706055,-8.050000190734863,-2.065000057220459
17.628141135626798,-0.1307840049266815,-0.8769359588623047,-0.3740519881248474,-40.31999969482422,3.990000009536743,0.7524999976158142
17.64821874512068,-0.0461159981787204,-0.7883639931678772,-0.5131319761276245,-47.07500076293945,19.809999465942383,9.957500457763672
17.66829635461456,-0.0492879971861839,-0.6919839978218079,-0.4060159921646118,-41.212501525878906,17.674999237060547,14.350000381469728
17.688373964108443,-0.2271640002727508,-0.6961320042610168,-0.2400960028171539,-51.6775016784668,7.927500247955322,20.63249969482422
17.708451573602325,-0.399183988571167,-0.7825079560279846,-0.2515639960765838,-72.625,1.0325000286102295,40.845001220703125
17.728529183096207,-0.3935720026493072,-0.7771399617195129,-0.3977199792861938,-100.0124969482422,3.5174999237060547,62.89500045776367
17.74860679259009,-0.228872001171112,-0.896943986415863,-0.5951159596443176,-108.90250396728516,14.052499771118164,77.19249725341797
17.76868440208397,-0.1322479993104934,-1.054811954498291,-0.7886079549789429,-96.96749877929688,10.114999771118164,77.0875015258789
17.78876201157785,-0.1251720041036605,-1.0043039321899414,-0.7815319895744324,-65.1875,4.445000171661377,66.67500305175781
17.808839621071733,-0.1661639958620071,-0.8376519680023193,-0.5668119788169861,-40.845001220703125,0.6299999952316284,64.43499755859375
17.828917230565615,-0.1564040035009384,-0.5582720041275024,-0.44896000623703,-40.880001068115234,-4.934999942779541,76.2125015258789
17.848994840059497,-0.0751519948244094,-0.4592079818248749,-0.4579879939556122,-52.150001525878906,-3.990000009536743,85.99500274658203
17.86907244955338,-0.100283995270729,-0.6963759660720825,-0.7107719779014587,-74.97000122070312,12.494999885559082,98.64749908447266
17.88915005904726,-0.100283995270729,-0.8496080040931702,-0.7527399659156799,-45.51750183105469,25.5674991607666,98.03500366210938
17.909227668541142,-0.1969079971313476,-0.6768559813499451,-0.6341559886932373,-49.8224983215332,12.232500076293944,97.93000030517578
17.929305278035024,-0.3598999977111816,-0.7102839946746826,-0.5270400047302246,-71.88999938964844,0.332500010728836,89.25
17.949382887528905,-0.3891800045967102,-0.6331799626350403,-0.5885279774665833,-69.44000244140625,3.640000104904175,73.70999908447266
17.969460497022787,-0.2742559909820556,-0.6300079822540283,-0.6953999996185303,-64.34750366210938,1.9774999618530276,81.62000274658203
17.98953810651667,-0.1088239997625351,-0.6492840051651001,-0.7717719674110413,-55.755001068115234,2.0999999046325684,79.64250183105469
18.00961571601055,-0.2278959900140762,-0.5333839654922485,-0.8169119954109192,-48.54500198364258,0.0175000000745058,83.87750244140625
18.029693325504432,-0.4182159900665283,-0.6439160108566284,-0.7388319969177246,-64.87249755859375,-9.9399995803833,68.07499694824219
18.049770934998314,-0.5033720135688782,-0.663923978805542,-0.6844199895858765,-63.244998931884766,-2.502500057220459,48.45750045776367
18.069848544492196,-0.310368001461029,-0.5158159732818604,-0.868395984172821,-38.185001373291016,-3.447499990463257,31.02750015258789
