Time (seconds),acc_x,acc_y,acc_z,gyro_x,gyro_y,gyro_z
0.020084630767362797,0.1251720041036605,-0.949891984462738,-0.2820639908313751,2.012500047683716,-0.5774999856948853,0.4550000131130218
0.040169261534725595,0.1232199966907501,-0.9657520055770874,-0.2813319861888885,1.347499966621399,-0.4025000035762787,0.8575000166893005
0.06025389230208839,0.1268799901008606,-0.973315954208374,-0.2703520059585571,1.5399999618530271,-0.0350000001490116,0.9275000095367432
0.08033852306945119,0.1293199956417083,-0.9647759795188904,-0.2601040005683899,1.680000066757202,0.2800000011920929,0.7524999976158142
0.100423153836814,0.1259039938449859,-0.9569680094718932,-0.2613239884376526,0.6650000214576721,0.4550000131130218,0.7350000143051147
0.1205077846041768,0.1263919919729232,-0.961359977722168,-0.2659600079059601,-0.6474999785423279,0.4900000095367431,0.5249999761581421
0.1405924153715396,0.1227319985628128,-0.9674599766731262,-0.2693759799003601,-1.1725000143051147,0.7524999976158142,0.4550000131130218
0.1606770461389024,0.1219999939203262,-0.9659959673881532,-0.2627879977226257,-0.8575000166893005,1.0325000286102295,0.332500010728836
0.1807616769062652,0.1222440004348754,-0.962336003780365,-0.2513200044631958,-0.2800000011920929,1.2424999475479126,0.2450000047683715
0.20084630767362802,0.1222440004348754,-0.9542839527130128,-0.2444880008697509,-0.2450000047683715,0.9800000190734864,0.3149999976158142
0.22093093844099082,0.1254159957170486,-0.9576999545097352,-0.2437559962272644,-0.9100000262260436,0.332500010728836,0.6474999785423279
0.24101556920835362,0.1227319985628128,-0.9640439748764038,-0.2430239915847778,-0.962499976158142,-0.0700000002980232,1.190000057220459
0.26110019997571643,0.1256600022315979,-0.9684360027313232,-0.2420479953289032,-0.332500010728836,-0.1924999952316284,1.3825000524520874
0.2811848307430792,0.1237079948186874,-0.9650200009346008,-0.2396079897880554,0.1924999952316284,-0.2100000083446502,1.3825000524520874
0.301269461510442,0.1215119957923889,-0.9657520055770874,-0.2474159896373748,0.2100000083446502,-0.4025000035762787,1.1725000143051147
0.32135409227780476,0.1156559959053993,-0.969655990600586,-0.2588839828968048,0.1400000005960464,-0.6299999952316284,0.9449999928474426
0.34143872304516754,0.1090679988265037,-0.9869799613952636,-0.2564440071582794,-0.3149999976158142,-0.4900000095367431,0.7175000309944153
0.3615233538125303,0.1068719998002052,-0.990395963191986,-0.2439999878406524,0.0700000002980232,-0.5425000190734863,-0.4200000166893005
0.3816079845798931,0.1071159988641738,-0.9757559895515442,-0.2391199916601181,0.7875000238418579,-0.8050000071525574,-1.6449999809265137
0.40169261534725587,0.1107759997248649,-0.965507984161377,-0.2366800010204315,0.9275000095367432,-0.9975000023841858,-1.924999952316284
0.42177724611461864,0.1158999949693679,-0.9611159563064576,-0.2374119907617569,0.9275000095367432,-1.1200000047683716,-1.784999966621399
0.4418618768819814,0.114436000585556,-0.9552599787712096,-0.2400960028171539,1.1549999713897705,-1.0674999952316284,-1.662500023841858
0.4619465076493442,0.1129719987511634,-0.9545279741287231,-0.2398519963026046,0.8575000166893005,-1.190000057220459,-1.4175000190734863
0.482031138416707,0.109555996954441,-0.9681919813156128,-0.2427799999713897,0.1924999952316284,-1.5924999713897705,-1.4524999856948853
0.5021157691840697,0.1132159978151321,-0.9818559885025024,-0.2466839998960495,0.262499988079071,-1.7324999570846558,-2.134999990463257
0.5222003999514325,0.1178519949316978,-0.9852719902992249,-0.2391199916601181,0.7524999976158142,-1.3300000429153442,-2.677500009536743
0.5422850307187953,0.1227319985628128,-0.972827970981598,-0.2330199927091598,1.784999966621399,-0.9800000190734864,-2.8350000381469727
0.5623696614861581,0.1237079948186874,-0.958187997341156,-0.2320439964532852,2.2225000858306885,-0.6474999785423279,-2.432500123977661
0.5824542922535209,0.1215119957923889,-0.957211971282959,-0.2337519973516464,1.7324999570846558,-0.5600000023841858,-1.837499976158142
0.6025389230208836,0.1227319985628128,-0.9564799666404724,-0.2354599982500076,1.347499966621399,-0.262499988079071,-1.6100000143051147
0.6226235537882464,0.1307840049266815,-0.9703879952430724,-0.2322880029678344,1.3300000429153442,0.6299999952316284,-0.9100000262260436
0.6427081845556092,0.1327359974384308,-0.970143973827362,-0.2357039898633957,1.8550000190734863,0.8050000071525574,-0.699999988079071
0.662792815322972,0.124439999461174,-0.9635559916496276,-0.2405840009450912,1.9075000286102293,0.8224999904632568,-0.6825000047683716
0.6828774460903347,0.1198039948940277,-0.9635559916496276,-0.2444880008697509,1.6100000143051147,0.8400000333786011,-0.5950000286102295
0.7029620768576975,0.1173639968037605,-0.9652639627456664,-0.2427799999713897,1.8200000524520876,0.875,-0.3849999904632568
0.7230467076250603,0.118827998638153,-0.969655990600586,-0.2439999878406524,2.6424999237060547,0.7175000309944153,-0.1050000041723251
0.7431313383924231,0.1207799986004829,-0.9689239859580994,-0.2410719990730285,3.447499990463257,0.6474999785423279,0.1749999970197677
0.7632159691597858,0.1219999939203262,-0.9598959684371948,-0.2396079897880554,3.762500047683716,0.5950000286102295,0.2975000143051147
0.7833005999271486,0.1224879994988441,-0.9606279730796814,-0.2400960028171539,2.992500066757202,0.5249999761581421,0.3149999976158142
0.8033852306945114,0.1256600022315979,-0.9674599766731262,-0.2435119897127151,2.134999990463257,0.3499999940395355,-0.1050000041723251
0.8234698614618742,0.1239520013332367,-0.9713639616966248,-0.2515639960765838,1.4524999856948853,-0.0525000020861625,-0.6825000047683716
0.843554492229237,0.1246839985251426,-0.977463960647583,-0.2552239894866943,1.1024999618530271,0.2100000083446502,-1.1549999713897705
0.8636391229965997,0.1307840049266815,-0.965507984161377,-0.2518079876899719,1.8550000190734863,1.0325000286102295,-1.6100000143051147
0.8837237537639625,0.1324919909238815,-0.9547719955444336,-0.2469279915094375,1.837499976158142,1.7324999570846558,-1.5575000047683716
0.9038083845313253,0.1356640011072158,-0.95306396484375,-0.2444880008697509,1.0674999952316284,2.327500104904175,-1.4175000190734863
0.9238930152986881,0.1351760029792785,-0.9584319591522216,-0.2469279915094375,-0.0175000000745058,2.6424999237060547,-1.2424999475479126
0.9439776460660508,0.1407880038022995,-0.9674599766731262,-0.2439999878406524,-0.8924999833106995,3.202500104904175,-0.7175000309944153
0.9640622768334136,0.1393239945173263,-0.9672159552574158,-0.2396079897880554,-0.875,3.849999904632568,-0.0525000020861625
0.9841469076007764,0.1407880038022995,-0.9552599787712096,-0.2359479963779449,-0.1400000005960464,4.602499961853027,0.3675000071525574
1.0042315383681393,0.1464000046253204,-0.9420839548110962,-0.2381439954042434,-0.1225000023841857,5.25,0.9975000023841858
1.024316169135502,0.1446920037269592,-0.9403759837150574,-0.2408279925584793,-0.9975000023841858,5.775000095367432,1.8550000190734863
1.0444007999028648,0.1466439962387085,-0.954039990901947,-0.2430239915847778,-1.924999952316284,6.492499828338623,2.9049999713897705
1.0644854306702276,0.142984002828598,-0.9667279720306396,-0.2471719980239868,-2.1875,7.157500267028809,3.4649999141693115
1.0845700614375904,0.1393239945173263,-0.9796599745750428,-0.2469279915094375,-2.0824999809265137,7.840000152587891,3.552500009536743
1.1046546922049532,0.1371279954910278,-0.9801479578018188,-0.2415599972009658,-1.4700000286102295,8.382499694824219,3.237499952316284
1.124739322972316,0.1266359984874725,-0.9698999524116516,-0.2437559962272644,-0.7875000238418579,8.452500343322754,2.677500009536743
1.1448239537396787,0.1122400015592575,-0.96697199344635,-0.249123990535736,-0.7875000238418579,7.875,2.257499933242798
1.1649085845070415,0.1029679998755455,-0.9640439748764038,-0.2520520091056824,-0.699999988079071,7.192500114440918,1.784999966621399
1.1849932152744043,0.0990639999508857,-0.9681919813156128,-0.2479040026664734,-0.7524999976158142,6.492499828338623,1.5049999952316284
1.205077846041767,0.1000399962067604,-0.9718520045280457,-0.2425359934568405,-0.7875000238418579,5.652500152587891,1.1200000047683716
1.2251624768091298,0.1027240008115768,-0.9635559916496276,-0.2383880019187927,-1.5225000381469729,3.569999933242798,0.4375
1.2452471075764926,0.1107759997248649,-0.961359977722168,-0.2378999888896942,-2.0999999046325684,2.8350000381469727,0.612500011920929
1.2653317383438554,0.1178519949316978,-0.9633119702339172,-0.234484001994133,-1.9600000381469729,2.572499990463257,1.3650000095367432
1.2854163691112181,0.124439999461174,-0.9686799645423888,-0.2283839881420135,-1.5924999713897705,2.5199999809265137,2.0299999713897705
1.305500999878581,0.1276119947433471,-0.9708759784698486,-0.226187989115715,-1.1375000476837158,2.4674999713897705,2.2225000858306885
1.3255856306459437,0.1327359974384308,-0.9762439727783204,-0.2254559993743896,-0.7350000143051147,2.677500009536743,2.0824999809265137
1.3456702614133065,0.1378600001335144,-0.9833199977874756,-0.224723994731903,-0.2450000047683715,3.202500104904175,1.8725000619888303
1.3657548921806693,0.1351760029792785,-0.9850279688835144,-0.2239919900894165,0.5249999761581421,3.6575000286102295,1.4175000190734863
1.385839522948032,0.1300520002841949,-0.9738039970397948,-0.2210640013217926,1.277500033378601,3.867500066757202,0.7875000238418579
1.4059241537153948,0.1210239976644516,-0.96697199344635,-0.2193560004234314,1.1200000047683716,3.674999952316284,0.4025000035762787
1.4260087844827576,0.1158999949693679,-0.9603840112686156,-0.2217959910631179,0.8400000333786011,3.150000095367432,0.1749999970197677
1.4460934152501204,0.1110199987888336,-0.9691680073738098,-0.2264319956302642,0.3675000071525574,2.345000028610229,0.2275000065565109
1.4661780460174831,0.1100439950823783,-0.977463960647583,-0.2278959900140762,0.4724999964237213,1.6449999809265137,0.3675000071525574
1.486262676784846,0.1129719987511634,-0.9789279699325562,-0.2239919900894165,0.9800000190734864,1.0674999952316284,0.2450000047683715
1.5063473075522087,0.1171199977397918,-0.9786840081214904,-0.220331996679306,1.4175000190734863,0.6299999952316284,0.1400000005960464
1.5264319383195715,0.1183400005102157,-0.9730719923973083,-0.2230159938335418,1.837499976158142,0.332500010728836,-0.1749999970197677
1.5465165690869342,0.1205359995365142,-0.9640439748764038,-0.224723994731903,1.75,0.1749999970197677,-0.6650000214576721
1.566601199854297,0.1202920004725456,-0.962336003780365,-0.2322880029678344,1.4350000619888306,0.0525000020861625,-0.9449999928474426
1.5866858306216598,0.1234639957547187,-0.96453195810318,-0.2339959889650344,1.190000057220459,0.1924999952316284,-0.9275000095367432
1.6067704613890226,0.1190719977021217,-0.9698999524116516,-0.2339959889650344,1.1200000047683716,0.1749999970197677,-0.6825000047683716
1.6268550921563854,0.1190719977021217,-0.9684360027313232,-0.2337519973516464,1.5399999618530271,-0.0525000020861625,-0.5074999928474426
1.6469397229237481,0.119559995830059,-0.969655990600586,-0.230335995554924,1.837499976158142,0.1225000023841857,0.1574999988079071
1.667024353691111,0.1224879994988441,-0.9718520045280457,-0.2315559983253479,1.9075000286102293,0.0350000001490116,-0.0350000001490116
1.6871089844584737,0.1241960003972053,-0.973315954208374,-0.2339959889650344,2.1524999141693115,0.0874999985098838,-0.3499999940395355
1.7071936152258365,0.1251720041036605,-0.9689239859580994,-0.236191987991333,2.432500123977661,0.0874999985098838,-0.699999988079071
1.7272782459931992,0.1261480003595352,-0.96453195810318,-0.2354599982500076,2.555000066757202,0.1400000005960464,-0.699999988079071
1.747362876760562,0.1251720041036605,-0.9569680094718932,-0.2335079908370971,2.817500114440918,0.1924999952316284,-0.4200000166893005
1.7674475075279248,0.1227319985628128,-0.954039990901947,-0.2305800020694732,2.555000066757202,-0.1574999988079071,0.1050000041723251
1.7875321382952876,0.1227319985628128,-0.958675980567932,-0.2337519973516464,1.8725000619888303,-0.5950000286102295,0.6299999952316284
1.8076167690626503,0.124439999461174,-0.965507984161377,-0.234484001994133,1.75,-1.3825000524520874,1.3125
1.8277013998300131,0.1251720041036605,-0.9723399877548218,-0.2359479963779449,2.432500123977661,-1.837499976158142,1.8899999856948853
1.847786030597376,0.1259039938449859,-0.9772199988365172,-0.2396079897880554,2.9749999046325684,-1.399999976158142,2.257499933242798
1.8678706613647387,0.1310279965400695,-0.9723399877548218,-0.2437559962272644,2.6424999237060547,-0.5774999856948853,1.8550000190734863
1.8879552921321014,0.1312720030546188,-0.977463960647583,-0.2418039888143539,1.1549999713897705,0.262499988079071,1.1024999618530271
1.9080399228994642,0.1234639957547187,-0.97843998670578,-0.234484001994133,0.5425000190734863,0.7175000309944153,-0.0175000000745058
1.928124553666827,0.1168759986758232,-0.9703879952430724,-0.2298479974269867,0.7175000309944153,0.7175000309944153,-0.9100000262260436
1.9482091844341898,0.1141919940710067,-0.9657520055770874,-0.2266760021448135,0.6299999952316284,0.4025000035762787,-1.0325000286102295
1.9682938152015526,0.1134599968791008,-0.9552599787712096,-0.226187989115715,0.4550000131130218,0.0175000000745058,-0.9449999928474426
1.9883784459689153,0.1134599968791008,-0.9533079862594604,-0.2256999909877777,-0.2275000065565109,-0.3149999976158142,-0.612500011920929
2.008463076736278,0.1158999949693679,-0.961359977722168,-0.224480003118515,-1.0149999856948853,-0.612500011920929,-0.2450000047683715
2.028547707503641,0.1198039948940277,-0.9750239849090576,-0.2208199948072433,-1.0674999952316284,-0.8050000071525574,-0.0175000000745058
2.048632338271004,0.1237079948186874,-0.9789279699325562,-0.2178919911384582,-0.3149999976158142,-0.8575000166893005,-0.1400000005960464
2.068716969038367,0.1290760040283203,-0.9777079820632936,-0.2159399986267089,0.262499988079071,-0.8924999833106995,-0.1400000005960464
2.08880159980573,0.1324919909238815,-0.9740479588508606,-0.2178919911384582,0.5249999761581421,-0.7699999809265137,0.0350000001490116
2.108886230573093,0.1312720030546188,-0.9689239859580994,-0.2205759882926941,0.6299999952316284,-0.3675000071525574,0.0525000020861625
2.128970861340456,0.1271239966154098,-0.9716079831123352,-0.2222839891910553,0.4025000035762787,0.0525000020861625,0.0874999985098838
2.149055492107819,0.1219999939203262,-0.9794159531593324,-0.2210640013217926,0.3675000071525574,0.4375,0.0700000002980232
2.169140122875182,0.1205359995365142,-0.9772199988365172,-0.2152079939842224,0.6650000214576721,0.6650000214576721,-0.1749999970197677
2.189224753642545,0.1207799986004829,-0.9755119681358336,-0.2122799903154373,0.7875000238418579,0.4900000095367431,-0.4724999964237213
2.209309384409908,0.1210239976644516,-0.9740479588508606,-0.2122799903154373,0.7699999809265137,0.3675000071525574,-0.5774999856948853
2.229394015177271,0.119559995830059,-0.9694119691848756,-0.2127679884433746,0.7699999809265137,0.1749999970197677,-0.7875000238418579
2.249478645944634,0.1190719977021217,-0.9679479598999025,-0.2105719894170761,0.699999988079071,0.0874999985098838,-0.7699999809265137
2.269563276711997,0.1185839995741844,-0.9706319570541382,-0.2113039940595626,0.7350000143051147,0.1924999952316284,-0.5249999761581421
2.28964790747936,0.1224879994988441,-0.973315954208374,-0.2115480005741119,1.0149999856948853,0.3675000071525574,-0.2450000047683715
2.309732538246723,0.1254159957170486,-0.9740479588508606,-0.2108159959316253,1.277500033378601,0.5774999856948853,-0.1400000005960464
2.329817169014086,0.1266359984874725,-0.9698999524116516,-0.2113039940595626,1.3300000429153442,0.875,-0.0874999985098838
2.349901799781449,0.1239520013332367,-0.9686799645423888,-0.2137439996004104,0.9449999928474426,1.1725000143051147,-0.1574999988079071
2.369986430548812,0.1178519949316978,-0.9730719923973083,-0.2156959921121597,0.5774999856948853,1.225000023841858,-0.4025000035762787
2.390071061316175,0.1134599968791008,-0.9769759774208068,-0.2176479995250702,0.6650000214576721,1.0850000381469729,-0.6474999785423279
2.410155692083538,0.1093119978904724,-0.972827970981598,-0.2169159948825836,1.924999952316284,0.4375,-1.0149999856948853
2.430240322850901,0.1080919951200485,-0.9738039970397948,-0.2152079939842224,2.012500047683716,0.0175000000745058,-1.2074999809265137
2.450324953618264,0.1119959950447082,-0.9767319560050964,-0.2152079939842224,2.047499895095825,-0.4025000035762787,-1.5750000476837158
2.470409584385627,0.1156559959053993,-0.9777079820632936,-0.2125239968299865,2.6424999237060547,-0.612500011920929,-1.837499976158142
2.49049421515299,0.118827998638153,-0.9791719913482666,-0.2093520015478134,3.674999952316284,-0.6825000047683716,-1.8025000095367432
2.510578845920353,0.124439999461174,-0.977952003479004,-0.2110600024461746,4.550000190734863,-0.3149999976158142,-1.5924999713897705
2.530663476687716,0.1268799901008606,-0.9706319570541382,-0.2130119949579239,4.865000247955322,0.4200000166893005,-1.6449999809265137
2.550748107455079,0.1271239966154098,-0.965507984161377,-0.2120359987020492,4.340000152587891,1.2599999904632568,-1.8725000619888303
2.570832738222442,0.1185839995741844,-0.9684360027313232,-0.2078879922628402,3.4649999141693115,2.065000057220459,-1.9424999952316284
2.590917368989805,0.1132159978151321,-0.97599995136261,-0.1993480026721954,2.887500047683716,2.309999942779541,-1.9774999618530276
2.611001999757168,0.1166319996118545,-0.9781959652900696,-0.1934919953346252,2.572499990463257,2.0999999046325684,-1.8899999856948853
2.631086630524531,0.1176079958677291,-0.974291980266571,-0.1964199990034103,2.0299999713897705,1.1725000143051147,-1.924999952316284
2.651171261291894,0.110287994146347,-0.9711199998855592,-0.201787993311882,1.0325000286102295,0.0700000002980232,-2.2049999237060547
2.671255892059257,0.1054079979658126,-0.9684360027313232,-0.1986159980297088,0.1574999988079071,-0.9449999928474426,-2.677500009536743
2.69134052282662,0.1117519959807396,-0.9716079831123352,-0.2027639895677566,-0.1924999952316284,-1.715000033378601,-2.6075000762939453
2.711425153593983,0.1234639957547187,-0.9652639627456664,-0.2071560025215149,0.3675000071525574,-1.837499976158142,-2.3975000381469727
2.731509784361346,0.1217559948563575,-0.9713639616966248,-0.2100839912891388,0.4900000095367431,-2.117500066757202,-1.9774999618530276
2.751594415128709,0.1212679967284202,-0.9755119681358336,-0.2064239978790283,0.7175000309944153,-2.414999961853028,-1.784999966621399
2.771679045896072,0.1259039938449859,-0.9740479588508606,-0.2086199969053268,0.6825000047683716,-2.5199999809265137,-1.7675000429153442
2.791763676663435,0.1307840049266815,-0.9786840081214904,-0.2117919921875,0.2450000047683715,-2.6424999237060547,-1.784999966621399
2.811848307430798,0.1229759976267814,-0.9877119660377502,-0.2166720032691955,-0.2450000047683715,-2.6424999237060547,-2.0824999809265137
2.831932938198161,0.1190719977021217,-0.975268006324768,-0.2183799892663955,0.7875000238418579,-2.5899999141693115,-2.6424999237060547
2.852017568965524,0.1176079958677291,-0.9589200019836426,-0.2086199969053268,1.399999976158142,-2.625,-2.9749999046325684
2.872102199732887,0.1310279965400695,-0.9569680094718932,-0.2064239978790283,0.6474999785423279,-2.0999999046325684,-3.1675000190734863
2.89218683050025,0.1385920047760009,-0.9711199998855592,-0.2034959942102432,-0.0525000020861625,-1.5924999713897705,-2.870000123977661
2.912271461267613,0.1383479982614517,-0.9711199998855592,-0.195932000875473,0.3849999904632568,-1.399999976158142,-2.992500066757202
2.932356092034976,0.142984002828598,-0.9764879941940308,-0.1934919953346252,0.5600000023841858,-1.6100000143051147,-2.275000095367432
2.952440722802339,0.1442039906978607,-0.9738039970397948,-0.1973959952592849,0.5600000023841858,-1.4874999523162842,-1.8725000619888303
2.972525353569702,0.1320039927959442,-0.9606279730796814,-0.2066679894924163,0.2975000143051147,-1.6100000143051147,-2.362499952316284
2.992609984337065,0.1224879994988441,-0.9657520055770874,-0.2098399996757507,-1.0325000286102295,-2.047499895095825,-2.362499952316284
3.012694615104428,0.1327359974384308,-1.0133320093154907,-0.2154520004987716,-1.5225000381469729,-3.447499990463257,-0.875
3.032779245871791,0.1295640021562576,-1.0140639543533323,-0.2176479995250702,-0.8224999904632568,-4.514999866485596,-0.2800000011920929
3.052863876639154,0.1163880005478859,-0.9852719902992249,-0.2230159938335418,-0.4724999964237213,-5.96750020980835,-1.1200000047683716
3.072948507406517,0.1068719998002052,-0.972827970981598,-0.2369239926338195,-2.572499990463257,-7.262499809265137,-2.240000009536743
3.09303313817388,0.104432001709938,-0.9847840070724488,-0.2335079908370971,-5.039999961853027,-8.487500190734863,-3.622499942779541
3.113117768941243,0.1171199977397918,-0.9962520003318788,-0.2283839881420135,-4.392499923706055,-9.957500457763672,-4.550000190734863
3.133202399708606,0.1483519971370697,-0.9723399877548218,-0.2461960017681121,-0.5774999856948853,-11.270000457763672,-5.355000019073486
3.153287030475969,0.1686040014028549,-0.9320799708366394,-0.2510759830474853,2.134999990463257,-11.322500228881836,-6.317500114440918
3.173371661243332,0.1808039993047714,-0.8862079977989197,-0.2147199958562851,1.7675000429153442,-10.744999885559082,-7.945000171661377
3.193456292010695,0.171775996685028,-0.891819953918457,-0.1988599896430969,-3.692500114440918,-9.15250015258789,-7.175000190734863
3.213540922778058,0.158843994140625,-0.9274439811706544,-0.230335995554924,-7.052500247955322,-6.579999923706055,-5.862500190734863
3.233625553545421,0.1776320040225982,-0.9393999576568604,-0.2369239926338195,-6.510000228881836,-4.585000038146973,-4.865000247955322
3.253710184312784,0.1739719957113266,-0.952575981616974,-0.2137439996004104,-6.369999885559082,-4.235000133514404,-3.867500066757202
3.273794815080147,0.1542080044746399,-0.9755119681358336,-0.2095959931612014,-5.389999866485596,-6.597499847412109,-4.059999942779541
3.29387944584751,0.1205359995365142,-1.0062559843063354,-0.2183799892663955,-5.197500228881836,-10.447500228881836,-3.640000104904175
3.313964076614873,0.0968680009245872,-0.9877119660377502,-0.2281399965286255,-3.815000057220459,-14.9975004196167,-3.762500047683716
3.334048707382236,0.0753960013389587,-0.985759973526001,-0.2354599982500076,-4.707499980926514,-19.915000915527344,-3.7100000381469727
3.354133338149599,0.0719799995422363,-0.987223982810974,-0.2322880029678344,-5.862500190734863,-24.36000061035156,-4.357500076293945
3.374217968916962,0.0914999991655349,-1.0057679414749146,-0.2200879901647567,-6.054999828338623,-27.982500076293945,-5.827499866485596
3.394302599684325,0.1334680020809173,-1.0167479515075684,-0.218868002295494,-5.740000247955322,-29.417499542236328,-8.6274995803833
3.414387230451688,0.1864160001277923,-0.9657520055770874,-0.2215519994497299,-1.995000004768372,-29.71500015258789,-10.552499771118164
3.434471861219051,0.224723994731903,-0.9882000088691713,-0.2386319935321808,-4.392499923706055,-30.082500457763672,-8.242500305175781
3.454556491986414,0.2086199969053268,-0.9928359985351562,-0.2493679970502853,-2.012500047683716,-29.96000099182129,-5.670000076293945
3.474641122753777,0.1783639937639236,-0.9833199977874756,-0.2522960007190704,-5.792500019073486,-35.8224983215332,0.612500011920929
3.49472575352114,0.0736880004405975,-1.0277279615402222,-0.2820639908313751,-6.352499961853027,-37.15250015258789,2.765000104904175
3.514810384288503,0.1263919919729232,-0.8552199602127075,-0.2027639895677566,6.054999828338623,-30.1875,-8.382499694824219
3.534895015055866,0.0978439971804618,-0.8962119817733765,-0.2027639895677566,0.2975000143051147,-28.350000381469727,-10.517499923706056
3.554979645823229,0.0929640009999275,-1.0025960206985474,-0.2310680001974105,-7.262499809265137,-30.292499542236328,-6.772500038146973
3.575064276590592,0.1266359984874725,-0.9686799645423888,-0.2113039940595626,-1.995000004768372,-32.04249954223633,-9.572500228881836
3.595148907357955,0.1317600011825561,-0.9781959652900696,-0.2205759882926941,-1.662500023841858,-35.122501373291016,-8.645000457763672
3.615233538125318,0.1393239945173263,-0.9372040033340454,-0.2549799978733063,-3.115000009536743,-42.13999938964844,-8.994999885559082
3.635318168892681,0.1334680020809173,-0.9518439769744872,-0.2300919890403747,0.0175000000745058,-45.23749923706055,-9.625
3.655402799660044,0.1315159946680069,-0.9435479640960692,-0.2132560014724731,2.450000047683716,-46.91749954223633,-10.447500228881836
3.675487430427407,0.1495719999074936,-0.9515999555587769,-0.2113039940595626,1.1725000143051147,-46.63750076293945,-10.832500457763672
3.69557206119477,0.1681160032749176,-0.9472079873085022,-0.2249680012464523,-0.962499976158142,-47.040000915527344,-11.725000381469728
3.715656691962133,0.1790959984064102,-0.935252010822296,-0.2176479995250702,-2.414999961853028,-47.337501525878906,-13.020000457763672
3.735741322729496,0.2576639950275421,-0.933788001537323,-0.2676680088043213,-4.392499923706055,-45.41249847412109,-12.494999885559082
3.755825953496859,0.2549799978733063,-0.97599995136261,-0.2408279925584793,-7.787499904632568,-39.25249862670898,-9.887499809265137
3.775910584264222,0.1983719915151596,-0.973315954208374,-0.1422519981861114,-3.902499914169312,-36.837501525878906,-6.352499961853027
3.795995215031585,0.1771439909934997,-1.00381600856781,-0.153231993317604,-1.9424999952316284,-40.11000061035156,-5.372499942779541
3.816079845798948,0.1656759977340698,-0.9640439748764038,-0.1895879954099655,0.5774999856948853,-41.49250030517578,-7.892499923706055
3.836164476566311,0.1054079979658126,-0.9196360111236572,-0.143227994441986,1.924999952316284,-43.45249938964844,-8.329999923706055
3.856249107333674,0.0280600003898143,-0.9027999639511108,-0.0497759990394115,0.0700000002980232,-50.977500915527344,-7.857500076293945
3.876333738101037,0.0153719997033476,-0.8827919960021973,-0.0441639982163906,1.9424999952316284,-62.66749954223633,-7.315000057220459
3.8964183688684,0.0668559968471527,-0.9115839600563048,-0.1417640000581741,3.0799999237060547,-68.5999984741211,-2.012500047683716
3.916502999635763,0.1464000046253204,-0.9686799645423888,-0.3913759887218475,2.992500066757202,-68.02249908447266,3.849999904632568
3.936587630403126,0.1317600011825561,-1.154852032661438,-0.5250880122184753,-9.047499656677246,-61.932498931884766,4.567500114440918
3.956672261170489,0.2122799903154373,-1.361032009124756,-0.4318799972534179,-25.602500915527344,-54.022499084472656,-5.985000133514404
3.976756891937852,0.1559159904718399,-1.3715239763259888,-0.4684799909591675,-16.030000686645508,-49.0,-24.3075008392334
3.996841522705215,0.0739319995045661,-1.1836439371109009,-0.3955239951610565,9.520000457763672,-38.92000198364258,-35.4375
4.0169261534725775,0.0412359982728958,-0.9723399877548218,-0.3733199834823608,19.809999465942383,-40.25,-30.729999542236328
4.03701078423994,0.0251320004463195,-0.9101200103759766,-0.4082120060920715,21.40250015258789,-44.88750076293945,-16.4325008392334
4.057095415007303,0.0346480011940002,-0.8779119849205017,-0.4318799972534179,25.44499969482422,-52.77999877929688,-9.537500381469728
4.077180045774665,-0.0002439999952912,-0.7600600123405457,-0.3850319981575012,30.502500534057617,-57.48749923706055,-7.682499885559082
4.097264676542028,-0.0439199991524219,-0.6463559865951538,-0.2781600058078766,20.05500030517578,-63.087501525878906,-7.367499828338623
4.11734930730939,-0.052216000854969,-0.7010120153427124,-0.216183990240097,13.19499969482422,-66.3949966430664,-9.835000038146973
4.137433938076753,-0.0048799999058246,-0.7510319948196411,-0.195932000875473,6.090000152587891,-63.57749938964844,-13.510000228881836
4.157518568844115,-0.0075639998540282,-0.9562360048294068,-0.3215920031070709,-13.789999961853027,-51.5724983215332,-8.907500267028809
4.177603199611478,0.0424560010433197,-1.0633519887924194,-0.3889359831809997,-17.920000076293945,-48.40499877929688,-1.7675000429153442
4.1976878303788405,0.1339560002088546,-1.1489959955215454,-0.4006479978561401,-20.737499237060547,-58.310001373291016,7.507500171661377
4.217772461146203,0.0763719975948333,-1.0860439538955688,-0.2669360041618347,12.65250015258789,-54.82749938964844,5.757500171661377
4.237857091913566,-0.0270840004086494,-1.0008879899978638,-0.2591280043125152,24.237499237060547,-52.56999969482422,-1.225000023841858
4.257941722680928,-0.1068719998002052,-0.9020679593086244,-0.228872001171112,31.5,-51.72999954223633,-6.002500057220459
4.278026353448291,-0.1176079958677291,-0.8305760025978088,-0.1969079971313476,28.962499618530277,-50.85499954223633,-2.870000123977661
4.298110984215653,-0.0795440003275871,-0.8325279951095581,-0.2093520015478134,15.417500495910645,-52.220001220703125,5.53000020980835
4.318195614983016,-0.0065879998728632,-0.8703479766845703,-0.2310680001974105,2.572499990463257,-52.92000198364258,9.782500267028809
4.338280245750378,0.0358680002391338,-0.9120720028877258,-0.230335995554924,-3.692500114440918,-51.15250015258789,8.119999885559082
4.358364876517741,0.0239119995385408,-0.9311040043830872,-0.2091079950332641,-2.362499952316284,-48.86000061035156,1.399999976158142
4.3784495072851035,-0.0231800004839897,-0.9179279804229736,-0.187391996383667,-0.0700000002980232,-47.72249984741211,-6.072500228881836
4.398534138052466,-0.0627079978585243,-0.903775990009308,-0.1927599906921386,-1.3125,-47.54750061035156,-11.74250030517578
4.418618768819829,-0.0697840005159378,-0.8852319717407227,-0.1661639958620071,-1.9774999618530276,-47.057498931884766,-16.274999618530273
4.438703399587191,-0.047580000013113,-0.8862079977989197,-0.1105320006608963,-2.414999961853028,-46.900001525878906,-20.002500534057617
4.458788030354554,-0.0524599999189376,-0.908411979675293,-0.0885719954967498,-2.694999933242798,-46.65499877929688,-24.2549991607666
4.478872661121916,-0.0646599978208541,-0.9267119765281676,-0.1063839942216873,-1.2424999475479126,-45.16749954223633,-30.239999771118164
4.498957291889279,-0.0302559994161129,-0.933299958705902,-0.1322479993104934,0.8575000166893005,-42.03499984741211,-36.34749984741211
4.519041922656641,0.0156159996986389,-0.915731966495514,-0.1549399942159652,1.6100000143051147,-36.73250198364258,-39.72499847412109
4.539126553424004,0.1385920047760009,-0.918172001838684,-0.1827559918165207,0.1749999970197677,-28.36750030517578,-37.69499969482422
4.5592111841913665,0.2156959921121597,-0.9686799645423888,-0.2637639939785003,-5.494999885559082,-18.74250030517578,-31.762500762939453
4.579295814958729,0.2100839912891388,-1.0740879774093628,-0.2283839881420135,-5.389999866485596,-19.75749969482422,-26.967500686645508
4.599380445726092,0.1024799942970275,-1.1670520305633545,-0.0602679997682571,4.059999942779541,-15.837499618530272,-22.854999542236328
4.619465076493454,0.0129319997504353,-1.2202439308166504,-0.0041479999199509,12.880000114440918,-11.707500457763672,-18.40999984741211
4.639549707260817,-0.1041879951953888,-1.2958840131759644,-0.1576239913702011,20.70249938964844,-10.412500381469728,-11.00749969482422
4.659634338028179,-0.3923519849777221,-1.3156479597091677,-0.3196399807929992,9.800000190734863,-17.27250099182129,8.417500495910645
4.679718968795542,-0.4352959990501404,-1.5755079984664917,-0.264983981847763,-25.51499938964844,-38.5525016784668,34.96500015258789
4.699803599562904,-0.4516440033912658,-1.3088159561157229,-0.2166720032691955,-2.6600000858306885,-38.0099983215332,21.927499771118164
4.719888230330267,-0.3276920020580292,-1.0104039907455444,-0.2313119918107986,12.477499961853027,-45.86750030517578,-12.547499656677246
4.7399728610976295,-0.1564040035009384,-0.915731966495514,-0.2537599802017212,10.692500114440918,-44.55500030517578,-35.525001525878906
4.760057491864992,-0.0017079999670386,-0.6817359924316406,-0.3052439987659454,20.667499542236328,-35.209999084472656,-47.98500061035156
4.780142122632355,0.1061399951577186,-0.5370439887046814,-0.3845439851284027,17.622499465942383,-28.752500534057617,-46.77750015258789
4.800226753399717,0.071492001414299,-0.5812079906463623,-0.4526199996471405,0.2800000011920929,-26.582500457763672,-36.557498931884766
4.82031138416708,0.0436760000884532,-0.7978799939155579,-0.4284639954566955,-11.462499618530272,-40.25,-21.64750099182129
4.840396014934442,-0.0534359999001026,-1.0216280221939087,-0.4126040041446686,-9.800000190734863,-56.40250015258789,-11.462499618530272
4.860480645701805,-0.1171199977397918,-1.1345999240875244,-0.3667320013046264,-1.0325000286102295,-68.96749877929688,-12.3725004196167
4.880565276469167,-0.0827159956097602,-1.1011719703674316,-0.2725479900836944,8.855000495910645,-79.06500244140625,-22.295000076293945
4.90064990723653,-0.0492879971861839,-1.0082080364227295,-0.2810879945755005,21.752500534057617,-79.74749755859375,-39.21749877929688
4.9207345380038925,-0.038307998329401,-0.9308599829673768,-0.3362320065498352,24.587499618530277,-85.15499877929688,-52.77999877929688
4.940819168771255,-0.0312319993972778,-0.9049959778785706,-0.3669759929180145,19.70499992370605,-91.2624969482422,-56.630001068115234
4.960903799538618,0.0026839999482035,-0.8527799844741821,-0.3713679909706116,17.780000686645508,-92.95999908447266,-52.23749923706055
4.98098843030598,0.0409919992089271,-0.8286240100860596,-0.3642919957637787,13.859999656677246,-95.44499969482422,-47.56499862670898
5.001073061073343,0.0583159998059272,-0.843019962310791,-0.3496519923210144,5.827499866485596,-100.625,-44.60750198364258
5.021157691840705,0.085887998342514,-0.8022719621658325,-0.3191519975662231,-1.924999952316284,-104.09000396728516,-44.46749877929688
5.041242322608068,0.1119959950447082,-0.8652240037918091,-0.3054879903793335,-13.807499885559082,-105.12249755859376,-42.10499954223633
5.06132695337543,0.1278560012578964,-0.9464759826660156,-0.3091479837894439,-16.887500762939453,-104.0199966430664,-39.462501525878906
5.081411584142793,0.130295991897583,-0.9396439790725708,-0.3096359968185425,-10.86750030517578,-100.57250213623048,-35.73500061035156
5.1014962149101555,0.1803160011768341,-0.962336003780365,-0.3159799873828888,-7.367499828338623,-95.51499938964844,-32.35750198364258
5.121580845677518,0.2442439943552017,-0.8139839768409729,-0.3172000050544739,6.545000076293945,-85.95999908447266,-29.540000915527344
5.141665476444881,0.2842600047588348,-0.8173999786376953,-0.3081719875335693,2.0299999713897705,-74.77750396728516,-21.84000015258789
5.161750107212243,0.293531984090805,-0.8605879545211792,-0.2705959975719452,4.672500133514404,-66.69249725341797,-17.045000076293945
5.181834737979606,0.2957279980182647,-0.8239879608154297,-0.2791360020637512,8.8725004196167,-58.64250183105469,-10.850000381469728
5.201919368746968,0.2076440006494522,-0.8786439895629883,-0.2493679970502853,-0.5249999761581421,-53.68999862670898,-2.5899999141693115
5.222003999514331,0.1207799986004829,-0.9289079904556274,-0.1898320019245147,2.852499961853028,-52.185001373291016,1.190000057220459
5.242088630281693,0.0451399981975555,-0.9206119775772096,-0.1249279975891113,9.135000228881836,-54.057498931884766,1.0149999856948853
5.262173261049056,-0.0446520000696182,-1.0016199350357056,-0.1046760007739067,3.569999933242798,-55.66749954223633,3.7799999713897705
5.2822578918164185,-0.0197639986872673,-1.097756028175354,-0.1180959939956665,5.477499961853027,-60.54999923706055,5.477499961853027
5.302342522583781,0.0788119956851005,-1.126304030418396,-0.1237079948186874,13.0024995803833,-64.03250122070312,0.2975000143051147
5.322427153351144,0.1442039906978607,-1.1045880317687988,-0.0827159956097602,18.82999992370605,-68.05750274658203,-11.112500190734863
5.342511784118506,0.1490840017795562,-1.0125999450683594,-0.1422519981861114,23.99250030517578,-71.73249816894531,-22.52250099182129
5.362596414885869,0.1734839975833892,-0.9952759742736816,-0.4452999830245971,3.884999990463257,-72.81749725341797,-21.59499931335449
5.382681045653231,0.0680759996175766,-1.2844159603118896,-0.5816959738731384,-27.352500915527344,-63.875,-10.149999618530272
5.402765676420594,0.2535159885883331,-1.6755479574203491,-0.6121959686279297,-47.3025016784668,-63.13999938964844,-10.517499923706056
5.422850307187956,0.3152479827404022,-1.577947974205017,-0.6700239777565002,-9.607500076293944,-46.34000015258789,-25.58500099182129
5.442934937955319,-0.018300000578165,-0.7756760120391846,-0.4399319887161255,51.1875,-34.877498626708984,-25.690000534057617
5.4630195687226815,-0.2000799924135208,-0.5873079895973206,-0.3286679983139038,50.85499954223633,-50.18999862670898,-21.612499237060547
5.483104199490044,-0.2335079908370971,-0.5331400036811829,-0.2535159885883331,47.897499084472656,-61.28499984741211,-19.8799991607666
5.503188830257407,-0.1178519949316978,-0.5155720114707947,-0.2352159917354583,40.932498931884766,-60.35750198364258,-16.239999771118164
5.523273461024769,0.0307439994066953,-0.7825079560279846,-0.2620559930801391,-0.2975000143051147,-56.560001373291016,-6.440000057220459
5.543358091792132,0.1124840006232261,-1.0892159938812256,-0.3528240025043487,-24.20249938964844,-44.60750198364258,0.2450000047683715
5.563442722559494,0.2249680012464523,-1.2487919330596924,-0.4133359789848327,-14.699999809265137,-35.61249923706055,3.289999961853028
5.583527353326857,0.1925159990787506,-1.0474920272827148,-0.370635986328125,24.622499465942383,-24.325000762939453,0.0874999985098838
5.603611984094219,0.0895479992032051,-0.9943000078201294,-0.3213479816913605,28.752500534057617,-22.27750015258789,3.184999942779541
5.623696614861582,0.023667998611927,-1.0040600299835205,-0.3020719885826111,31.114999771118164,-18.112499237060547,6.142499923706055
5.6437812456289445,-0.047580000013113,-0.9313479661941528,-0.3091479837894439,35.157501220703125,-14.175000190734863,6.684999942779541
5.663865876396307,-0.0929640009999275,-0.8173999786376953,-0.2264319956302642,34.877498626708984,-9.239999771118164,7.559999942779541
5.68395050716367,-0.1219999939203262,-0.7439559698104858,-0.1700679957866668,23.92250061035156,-8.697500228881836,13.422499656677246
5.704035137931032,-0.1327359974384308,-0.7466399669647217,-0.1566479951143264,11.427499771118164,-10.079999923706056,22.32999992370605
5.724119768698395,-0.1280999928712844,-0.7617679834365845,-0.1505479961633682,3.0975000858306885,-13.842499732971191,28.15749931335449
5.744204399465757,-0.0924759954214096,-0.8122760057449341,-0.1690919995307922,-5.162499904632568,-18.58500099182129,30.69499969482422
5.76428903023312,-0.0409919992089271,-0.9020679593086244,-0.2073999941349029,-11.199999809265137,-20.19499969482422,27.649999618530277
5.784373661000482,0.0090279998257756,-0.945743978023529,-0.2222839891910553,-8.6274995803833,-18.165000915527344,17.149999618530273
5.804458291767845,0.0180559996515512,-0.904263973236084,-0.2052039951086044,-2.327500104904175,-12.792500495910645,3.7799999713897705
5.8245429225352074,0.0087839998304843,-0.8447279930114746,-0.1617719978094101,-2.0299999713897705,-6.894999980926514,-5.914999961853027
5.84462755330257,0.0173240005970001,-0.8166679739952087,-0.1378600001335144,-6.247499942779541,-3.0450000762939453,-10.9375
5.8647121840699326,0.0366000011563301,-0.8342359662055969,-0.1280999928712844,-12.31999969482422,-0.4724999964237213,-12.792500495910645
5.884796814837295,0.0295239984989166,-0.8952359557151794,-0.1549399942159652,-17.290000915527344,2.345000028610229,-11.9350004196167
5.904881445604658,0.0307439994066953,-0.9889319539070128,-0.1768999993801117,-20.07250022888184,6.352499961853027,-10.3774995803833
5.92496607637202,0.0807639956474304,-1.038707971572876,-0.1556719988584518,-18.864999771118164,13.422499656677246,-11.917500495910645
5.945050707139383,0.0805199965834617,-1.0452959537506104,-0.2088640034198761,-15.085000038146973,16.309999465942383,-17.13249969482422
5.965135337906745,0.0741759985685348,-1.060912013053894,-0.2698639929294586,-6.212500095367432,14.822500228881836,-21.84000015258789
5.985219968674108,0.1598199903964996,-1.0933640003204346,-0.1551840007305145,2.712500095367432,18.462499618530277,-21.15749931335449
6.00530459944147,0.2674239873886108,-1.1707119941711426,-0.0241560004651546,3.447499990463257,29.207500457763672,-11.707500457763672
6.025389230208833,0.2776719927787781,-1.191208004951477,-0.0192760005593299,-2.799999952316284,34.52750015258789,-3.884999990463257
6.0454738609761955,-0.1239520013332367,-1.0274839401245115,-0.3416000008583069,8.119999885559082,33.529998779296875,2.1700000762939453
6.065558491743558,-0.2564440071582794,-1.4303280115127563,-0.3760039806365967,-28.420000076293945,27.63249969482422,30.905000686645508
6.085643122510921,-0.3530679941177368,-1.6457799673080444,-0.4243159890174866,-31.325000762939453,12.337499618530272,46.130001068115234
6.105727753278283,-0.3132959902286529,-1.451799988746643,-0.3728320002555847,5.355000019073486,-1.2074999809265137,27.825000762939453
6.125812384045646,-0.2256999909877777,-1.2002359628677368,-0.3172000050544739,25.655000686645508,-8.732500076293945,-0.9800000190734864
6.145897014813008,-0.1056519970297813,-0.9174399971961976,-0.2771840095520019,29.68000030517578,-8.767499923706055,-21.84000015258789
6.165981645580371,-0.006343999877572,-0.6182959675788879,-0.2503440082073211,33.42499923706055,4.707499980926514,-34.73749923706055
6.186066276347733,0.0505079999566078,-0.3955239951610565,-0.2259439975023269,31.88500022888184,19.774999618530277,-40.61750030517578
6.206150907115096,0.0412359982728958,-0.3020719885826111,-0.248879998922348,12.792500495910645,22.61000061035156,-28.4375
6.2262355378824585,0.0356239974498748,-0.5199639797210693,-0.3237879872322082,-18.655000686645508,6.422500133514404,1.680000066757202
6.246320168649821,0.0692960023880004,-1.0235799551010132,-0.4126040041446686,-41.54500198364258,-12.197500228881836,35.665000915527344
6.266404799417184,0.0897919982671737,-1.4142240285873413,-0.4306599795818329,-43.3650016784668,-15.8725004196167,46.619998931884766
6.286489430184546,0.0312319993972778,-1.364691972732544,-0.3298879861831665,-4.8125,-4.585000038146973,13.667500495910645
6.306574060951909,-0.0487999990582466,-1.0848239660263062,-0.2352159917354583,25.270000457763672,-0.6650000214576721,-26.21500015258789
6.326658691719271,-0.0551439970731735,-0.9091439843177797,-0.2408279925584793,32.130001068115234,-6.054999828338623,-43.067501068115234
6.346743322486634,-0.0583159998059272,-0.8500959873199463,-0.2518079876899719,26.792499542236328,-13.667500495910645,-44.99250030517578
6.366827953253996,-0.0456280000507831,-0.814471960067749,-0.2696200013160705,15.4350004196167,-22.76749992370605,-39.602500915527344
6.386912584021359,-0.0075639998540282,-0.7839719653129578,-0.268887996673584,3.5350000858306885,-29.88999938964844,-30.712499618530277
6.4069972147887215,0.0134199997410178,-0.7646960020065308,-0.2857239842414856,-4.392499923706055,-33.23250198364258,-22.75
6.427081845556084,0.047580000013113,-0.8005639910697937,-0.2610799968242645,-17.53499984741211,-39.970001220703125,-15.102499961853027
6.447166476323447,0.1115079969167709,-0.8949919939041138,-0.2674239873886108,-26.354999542236328,-43.119998931884766,-11.077500343322754
6.467251107090809,0.1747040003538131,-0.9906399846076964,-0.2903600037097931,-28.73500061035156,-44.2400016784668,-12.582500457763672
6.487335737858172,0.1810479909181594,-1.0208959579467771,-0.2957279980182647,-23.065000534057617,-43.3125,-17.832500457763672
6.507420368625534,0.1434720009565353,-0.9964959621429444,-0.2452199906110763,-12.5649995803833,-41.05500030517578,-22.837499618530277
6.527504999392897,0.0973559990525245,-0.907435953617096,-0.2069119960069656,3.745000123977661,-37.01250076293945,-24.6924991607666
6.547589630160259,0.0736880004405975,-0.8183760046958923,-0.1973959952592849,7.612500190734863,-37.88750076293945,-19.565000534057617
6.567674260927622,0.071492001414299,-0.823743999004364,-0.2042279988527298,-1.1375000476837158,-38.1150016784668,-9.782500267028809
6.5877588916949845,0.0839359983801841,-0.8744959831237793,-0.2296039909124374,-6.474999904632568,-38.76250076293945,-0.4900000095367431
6.607843522462347,0.1259039938449859,-0.8796199560165405,-0.2593719959259033,-5.005000114440918,-37.5724983215332,4.742499828338623
6.62792815322971,0.1446920037269592,-0.9059720039367676,-0.2676680088043213,-8.015000343322754,-33.897499084472656,8.662500381469727
6.648012783997072,0.0812520012259483,-1.0272400379180908,-0.2252119928598404,1.9424999952316284,-31.79750061035156,7.454999923706055
6.668097414764435,0.0119559997692704,-1.0155279636383057,-0.2122799903154373,17.850000381469727,-32.7599983215332,5.337500095367432
6.688182045531797,0.0139079997316002,-1.0189440250396729,-0.140299990773201,19.774999618530277,-36.18999862670898,5.40749979019165
6.70826667629916,0.0461159981787204,-1.0706720352172852,-0.0734440013766288,13.5625,-42.80500030517578,1.9774999618530276
6.728351307066522,0.0395279973745346,-1.0543240308761597,-0.0597799979150295,14.980000495910645,-50.78499984741211,-5.96750020980835
6.748435937833885,0.0824719965457916,-0.9313479661941528,-0.1434720009565353,13.772500038146973,-57.78499984741211,-11.234999656677246
6.7685205686012475,0.1339560002088546,-1.028216004371643,-0.4343200027942657,-7.367499828338623,-56.595001220703125,-5.039999961853027
6.78860519936861,0.0544119998812675,-1.2417160272598269,-0.5475360155105591,-22.01499938964844,-52.67499923706055,0.9800000190734864
6.808689830135973,0.2137439996004104,-1.536955952644348,-0.5402159690856934,-36.61000061035156,-48.772499084472656,-4.480000019073486
6.828774460903335,0.3172000050544739,-1.498404026031494,-0.6085360050201416,-22.75,-34.58000183105469,-22.38249969482422
6.848859091670698,0.281819999217987,-1.2097519636154177,-0.5285040140151978,8.592499732971191,-17.7450008392334,-33.38999938964844
6.86894372243806,0.1464000046253204,-0.8862079977989197,-0.4477399885654449,29.434999465942383,-7.490000247955322,-26.739999771118164
6.889028353205423,-0.0239119995385408,-0.7166280150413513,-0.3889359831809997,31.90250015258789,-15.539999961853027,-14.822500228881836
6.909112983972785,-0.0897919982671737,-0.616100013256073,-0.3315959870815277,34.26499938964844,-26.31999969482422,-9.449999809265137
6.929197614740148,-0.1273680031299591,-0.4667719900608063,-0.2725479900836944,43.032501220703125,-30.55500030517578,-7.857500076293945
6.9492822455075105,-0.0966240018606185,-0.4811680018901825,-0.2527839839458465,28.89249992370605,-33.372501373291016,-7.542500019073486
6.969366876274873,-0.0326960012316703,-0.80349200963974,-0.2503440082073211,-17.9375,-38.272499084472656,-10.359999656677246
6.989451507042236,0.0597799979150295,-1.169003963470459,-0.3584359884262085,-44.5724983215332,-29.96000099182129,-7.752500057220459
7.009536137809598,0.1512800008058548,-1.3102799654006958,-0.3811279833316803,-24.27250099182129,-21.38500022888184,-5.022500038146973
7.029620768576961,0.1708000004291534,-1.1677839756011963,-0.3196399807929992,20.26499938964844,-18.934999465942383,-7.4375
7.049705399344323,0.0971119999885559,-1.022603988647461,-0.3433080017566681,31.7450008392334,-16.344999313354492,-3.5350000858306885
7.069790030111686,0.0480679981410503,-0.9674599766731262,-0.3284240067005157,28.979999542236328,-12.232500076293944,2.432500123977661
7.089874660879048,0.0026839999482035,-0.9515999555587769,-0.297679990530014,24.01000022888184,-9.625,5.372499942779541
7.109959291646411,-0.0275719985365867,-0.8735199570655823,-0.2535159885883331,22.96000099182129,-5.162499904632568,8.977499961853027
7.1300439224137735,-0.0370879992842674,-0.7754319906234741,-0.2281399965286255,18.6200008392334,-1.627500057220459,15.539999961853027
7.150128553181136,-0.0495319999754428,-0.7651839852333069,-0.2132560014724731,8.137499809265137,-0.9449999928474426,24.3075008392334
7.170213183948499,-0.0341599993407726,-0.8449719548225403,-0.20032399892807,-2.5199999809265137,-4.059999942779541,27.26499938964844
7.190297814715861,-0.0073199998587369,-0.9025560021400452,-0.2159399986267089,-4.409999847412109,-6.545000076293945,24.482500076293945
7.210382445483224,0.0348920002579689,-0.9023119807243348,-0.2327760010957718,-0.7175000309944153,-6.352499961853027,17.97249984741211
7.230467076250586,0.0553879998624324,-0.8771799802780151,-0.2305800020694732,1.0499999523162842,-3.972500085830689,9.55500030517578
7.250551707017949,-0.0029279999434947,-0.8427760004997253,-0.1576239913702011,-6.545000076293945,-1.9774999618530276,-6.929999828338623
7.270636337785311,-0.0241560004651546,-0.8857199549674988,-0.1361519992351532,-11.84749984741211,-4.269999980926514,-12.547499656677246
7.290720968552674,-0.0092719998210668,-0.9464759826660156,-0.1390800029039383,-14.03499984741211,-8.592499732971191,-16.450000762939453
7.3108055993200365,0.0390399992465972,-0.981611967086792,-0.1654319912195205,-11.147500038146973,-9.887499809265137,-20.037500381469727
7.330890230087399,0.1198039948940277,-0.96697199344635,-0.1827559918165207,-4.304999828338623,-6.860000133514404,-24.51749992370605
7.350974860854762,0.17323999106884,-0.9923479557037354,-0.2025199979543686,-0.0525000020861625,-3.2725000381469727,-28.332500457763672
7.371059491622124,0.2215519994497299,-1.004547953605652,-0.2398519963026046,2.9749999046325684,-1.399999976158142,-29.102500915527344
7.391144122389487,0.2725479900836944,-0.9713639616966248,-0.2635200023651123,4.322500228881836,2.432500123977661,-26.145000457763672
7.411228753156849,0.2959719896316528,-0.9933239817619324,-0.2042279988527298,-0.1225000023841857,9.292500495910645,-20.107500076293945
7.431313383924212,0.2881639897823334,-1.0570080280303955,-0.1239520013332367,-2.799999952316284,17.815000534057617,-12.005000114440918
7.451398014691574,0.1842200011014938,-1.0850679874420166,-0.0956479981541633,1.6974999904632568,22.1200008392334,-5.320000171661377
7.471482645458937,0.0732000023126602,-1.0389519929885864,-0.1520119905471801,10.272500038146973,19.302499771118164,-1.4175000190734863
7.4915672762262995,-0.1454239934682846,-1.1380159854888916,-0.3508719801902771,-0.2800000011920929,15.470000267028809,13.667500495910645
7.511651906993662,-0.3328160047531128,-1.5379319190979004,-0.4021120071411133,-40.6349983215332,-0.9975000023841858,44.55500030517578
7.531736537761025,-0.3215920031070709,-1.7546039819717407,-0.2657159864902496,-43.540000915527344,-17.13249969482422,57.15499877929688
7.551821168528387,-0.3816159963607788,-1.3488320112228394,-0.2315559983253479,8.505000114440918,-19.28499984741211,18.042499542236328
7.57190579929575,-0.2981680035591125,-0.9813680052757264,-0.2086199969053268,37.53749847412109,-25.602500915527344,-24.71000099182129
7.591990430063112,-0.1771439909934997,-0.769819974899292,-0.2459519952535629,35.997501373291016,-25.23500061035156,-47.28499984741211
7.612075060830475,-0.0546559989452362,-0.5594919919967651,-0.3008520007133484,27.020000457763672,-24.850000381469727,-57.88999938964844
7.632159691597837,-0.0346480011940002,-0.480679988861084,-0.3106119930744171,7.157500267028809,-25.637500762939453,-49.682498931884766
7.6522443223652,-0.0817399993538856,-0.5297240018844604,-0.3364759981632232,-17.045000076293945,-33.28499984741211,-29.225000381469727
7.6723289531325625,-0.076615996658802,-0.6663640141487122,-0.3755159974098205,-26.11000061035156,-46.165000915527344,-5.722499847412109
7.692413583899925,-0.0180559996515512,-0.854487955570221,-0.4506679773330688,-33.529998779296875,-61.31999969482422,16.729999542236328
7.712498214667288,0.0314759984612464,-1.1470439434051514,-0.4645760059356689,-43.084999084472656,-70.73500061035156,28.94499969482422
7.73258284543465,0.042943999171257,-1.226588010787964,-0.4047960042953491,-27.107500076293945,-76.0199966430664,13.720000267028809
7.752667476202013,-0.0139079997316002,-1.1199599504470823,-0.3823480010032654,-2.6600000858306885,-76.00250244140625,-16.065000534057617
7.772752106969375,-0.0668559968471527,-0.9886879920959472,-0.375027984380722,5.652500152587891,-79.94000244140625,-38.150001525878906
7.792836737736738,-0.0370879992842674,-0.8905999660491943,-0.3894239962100982,2.327500104904175,-82.09249877929688,-43.3125
7.8129213685041,0.0434319972991943,-0.8378959894180298,-0.4211439788341522,-5.337500095367432,-80.3949966430664,-38.220001220703125
7.833005999271463,0.0827159956097602,-0.8325279951095581,-0.3818599879741668,-10.744999885559082,-80.79750061035156,-30.100000381469727
7.8530906300388255,-0.0080519998446106,-0.799344003200531,-0.313539981842041,-19.092500686645508,-87.79750061035156,-18.864999771118164
7.873175260806188,-0.0029279999434947,-0.8374080061912537,-0.3184199929237366,-27.737499237060547,-91.6999969482422,-16.39750099182129
7.893259891573551,-0.0100039998069405,-0.949891984462738,-0.3433080017566681,-33.72249984741211,-95.84750366210938,-16.239999771118164
7.913344522340913,0.0185439996421337,-0.9979599714279176,-0.3935720026493072,-29.61000061035156,-100.2925033569336,-19.84499931335449
7.933429153108276,0.0405040010809898,-0.9633119702339172,-0.4645760059356689,-21.0,-103.38999938964844,-27.09000015258789
7.953513783875638,0.0351359993219375,-0.921343982219696,-0.4372479915618896,-15.137499809265137,-104.07250213623048,-30.625
7.973598414643001,0.0412359982728958,-0.8810839653015137,-0.505079984664917,-12.390000343322754,-103.44249725341795,-29.155000686645508
7.993683045410363,-0.0043919999152421,-0.8764479756355286,-0.4745799899101257,-21.122499465942383,-104.31749725341795,-23.467500686645508
8.013767676177727,-0.010491999797523,-0.9591639637947084,-0.5055679678916931,-25.8125,-107.92250061035156,-22.872499465942383
8.03385230694509,0.0117119997739791,-0.8896239995956421,-0.5921880006790161,-8.75,-109.77750396728516,-31.114999771118164
8.053936937712452,-0.0197639986872673,-0.7563999891281128,-0.6097559928894043,1.5049999952316284,-109.09500122070312,-35.4375
8.074021568479814,-0.0053679998964071,-0.623420000076294,-0.5521720051765442,4.65500020980835,-109.88249969482422,-38.34249877929688
8.094106199247177,0.0117119997739791,-0.5550999641418457,-0.4967840015888214,0.262499988079071,-111.17749786376952,-39.51499938964844
8.11419083001454,-0.047580000013113,-0.5111799836158752,-0.4550600051879883,-9.957500457763672,-115.8499984741211,-37.2400016784668
8.134275460781902,-0.0895479992032051,-0.5370439887046814,-0.4016239941120147,-17.377500534057617,-118.10749816894533,-32.54999923706055
8.154360091549265,-0.1307840049266815,-0.5285040140151978,-0.4797039926052093,-26.337499618530277,-114.87000274658205,-20.07250022888184
8.174444722316627,-0.0778359994292259,-0.5885279774665833,-0.4579879939556122,-41.6150016784668,-112.4375,-2.380000114440918
8.19452935308399,-0.0317199975252151,-0.642695963382721,-0.4672600030899048,-74.77750396728516,-112.73500061035156,13.824999809265137
8.214613983851352,0.143227994441986,-0.6678279638290405,-0.367464005947113,-82.54750061035156,-104.2300033569336,13.63249969482422
8.234698614618715,0.1158999949693679,-0.6778320074081421,-0.3289119899272918,-81.39250183105469,-84.99749755859375,2.1875
8.254783245386077,0.0712479948997497,-0.6331799626350403,-0.3240320086479187,-72.69499969482422,-49.10499954223633,-15.71500015258789
8.27486787615344,-0.1437159925699234,-0.6768559813499451,-0.4028439819812774,-58.59000015258789,-44.29249954223633,-34.26499938964844
8.294952506920803,-0.2354599982500076,-0.7788479924201965,-0.4823879897594452,-46.72499847412109,-66.02750396728516,-29.627500534057617
8.315037137688165,-0.171775996685028,-0.774944007396698,-0.4679919779300689,-34.334999084472656,-81.11250305175781,-19.232500076293945
8.335121768455528,-0.0756400004029274,-0.6583119630813599,-0.3879599869251251,-29.68000030517578,-84.55999755859375,-14.94499969482422
8.35520639922289,0.1063839942216873,-0.7742120027542114,-0.1966639906167984,-37.50249862670898,-82.54750061035156,-20.614999771118164
8.375291029990253,-0.0153719997033476,-1.0335839986801147,-0.3535560071468353,-32.654998779296875,-57.557498931884766,-31.920000076293945
8.395375660757615,-0.0583159998059272,-1.1045880317687988,-0.6197599768638611,-27.912500381469727,-50.994998931884766,-30.520000457763672
8.415460291524978,-0.0917439982295036,-1.333459973335266,-0.8134959936141968,-42.31499862670898,-43.557498931884766,-18.14750099182129
8.43554492229234,-0.0148839997127652,-1.3217480182647705,-0.6265919804573059,-15.085000038146973,-47.07500076293945,-21.315000534057617
8.455629553059703,-0.1681160032749176,-1.2697759866714478,-0.668071985244751,15.399999618530272,-38.255001068115234,-33.18000030517578
8.475714183827066,-0.2291159927845001,-1.2590399980545044,-0.749567985534668,13.579999923706056,-21.717500686645508,-27.107500076293945
8.495798814594428,-0.224480003118515,-1.242691993713379,-0.6895439624786377,18.00749969482422,-19.9325008392334,-17.447500228881836
8.51588344536179,-0.2183799892663955,-1.18779194355011,-0.5685200095176697,24.46500015258789,-20.15999984741211,-17.727500915527344
8.535968076129153,-0.2593719959259033,-1.223904013633728,-0.5653479695320129,8.994999885559082,-18.23500061035156,-16.677499771118164
8.556052706896516,-0.3118319809436798,-1.3715239763259888,-0.7559120059013367,-12.529999732971191,-20.59749984741211,-13.142499923706056
8.576137337663878,-0.3286679983139038,-1.5994199514389038,-1.0418800115585327,-10.5,-13.230000495910645,-8.119999885559082
8.59622196843124,-0.2757200002670288,-1.660175919532776,-1.0579839944839478,9.327500343322754,-14.630000114440918,-1.8200000524520876
8.616306599198603,-0.2010560035705566,-1.7092199325561523,-0.8940159678459167,12.197500228881836,-14.489999771118164,-2.9749999046325684
8.636391229965966,-0.3154920041561126,-2.098155975341797,-0.9223200082778932,6.720000267028809,-11.270000457763672,-14.052499771118164
8.656475860733329,-0.2544919848442077,-2.392175912857056,-1.088727951049805,11.042500495910645,-13.789999961853027,-31.114999771118164
8.676560491500691,-0.0290360003709793,-2.4626920223236084,-1.0855560302734375,4.829999923706055,-1.4874999523162842,-40.897499084472656
8.696645122268054,-0.0226919986307621,-2.341179847717285,-1.3019839525222778,-9.607500076293944,-6.002500057220459,-37.869998931884766
8.716729753035416,-0.2547360062599182,-2.4409759044647217,-1.531343936920166,-24.53499984741211,-2.9749999046325684,-43.522499084472656
8.736814383802779,-0.3596560060977936,-1.7750999927520752,-1.355907917022705,66.91999816894531,-11.637499809265137,-71.4000015258789
8.756899014570141,-0.4821439981460571,-0.7627440094947815,-0.6539199948310852,194.1100006103516,-38.709999084472656,-84.9800033569336
8.776983645337504,-0.6575799584388733,-0.1293199956417083,-0.1449359953403473,222.3374938964844,-64.61000061035156,-82.49500274658203
8.797068276104866,-0.4882439970970154,0.4718959927558899,-0.0034159999340772,248.7975006103516,-64.55750274658203,-93.43250274658205
8.817152906872229,-0.224480003118515,1.1297199726104736,-0.3269599974155426,243.40750122070312,-46.68999862670898,-70.22750091552734
8.837237537639592,-0.0548999980092048,1.7621679306030271,-0.6334239840507507,108.86750030517578,-2.747499942779541,15.154999732971191
8.857322168406954,0.10589599609375,0.773967981338501,-0.4123599827289581,-107.66000366210938,-29.417499542236328,77.47250366210938
8.877406799174317,0.3054879903793335,-0.790071964263916,0.1310279965400695,-201.09249877929688,-51.20500183105469,69.96500396728516
8.89749142994168,0.1361519992351532,-1.3337039947509766,-0.046604000031948,-72.7125015258789,-10.53499984741211,2.870000123977661
8.917576060709042,0.0639280006289482,-0.3781999945640564,0.1227319985628128,67.51499938964844,-2.362499952316284,-45.587501525878906
8.937660691476404,0.0402599982917308,0.285968005657196,0.1903200000524521,87.01000213623047,-0.6650000214576721,-53.30500030517578
8.957745322243767,0.0888160020112991,0.3489199876785278,0.1200480014085769,45.1150016784668,-3.7799999713897705,-39.47999954223633
8.97782995301113,0.0697840005159378,0.0746639966964721,0.0180559996515512,-1.2074999809265137,-7.630000114440918,-20.125
8.997914583778492,0.0273279994726181,-0.0456280000507831,-0.0053679998964071,-13.020000457763672,-16.415000915527344,-8.242500305175781
9.017999214545855,-0.0524599999189376,0.0060999998822808,-0.010491999797523,-4.53249979019165,-17.815000534057617,-8.242500305175781
9.038083845313217,-0.0690519958734512,0.0065879998728632,-0.0060999998822808,-1.277500033378601,-19.162500381469727,-12.3725004196167
9.05816847608058,0.0053679998964071,-0.1005280017852783,0.0258639995008707,1.3300000429153442,-13.667500495910645,-21.665000915527344
9.078253106847942,0.0007319999858736,-0.1161440014839172,-0.0026839999482035,10.517499923706056,-11.182499885559082,-25.375
9.098337737615305,-0.0109799997881054,-0.0890600010752677,-0.0470919981598854,21.612499237060547,-13.440000534057615,-29.45249938964844
9.118422368382667,-0.018300000578165,-0.0107359997928142,-0.0719799995422363,27.14249992370605,-21.979999542236328,-32.70750045776367
9.13850699915003,-0.0261080004274845,0.061243999749422,-0.0827159956097602,26.582500457763672,-30.04750061035156,-35.70000076293945
9.158591629917392,-0.0744199976325035,0.1139479950070381,-0.1359079927206039,18.899999618530277,-30.57250022888184,-33.23250198364258
9.178676260684755,-0.1351760029792785,0.0248879995197057,-0.375027984380722,-4.182499885559082,-24.184999465942383,-23.55500030517578
9.198760891452118,-0.2020319998264312,-0.1520119905471801,-0.7700639963150024,-28.82250022888184,-10.045000076293944,-15.645000457763672
9.21884552221948,-0.4843399822711944,-0.7117480039596558,-1.1375279426574707,-99.97750091552734,12.407500267028809,3.132499933242798
9.238930152986843,0.7837280035018921,-3.619983911514282,-0.9537959694862366,-268.5899963378906,-52.04500198364258,35.0
9.259014783754205,1.5896599292755127,-4.199728012084961,-0.5809639692306519,-185.8325042724609,-96.00499725341795,88.05999755859375
9.279099414521568,-0.9821000099182128,-2.911407947540283,-2.965087890625,-30.905000686645508,160.00250244140625,-10.167500495910645
9.29918404528893,-0.1703120023012161,-2.387295961380005,0.2544919848442077,36.15499877929688,-99.2249984741211,-33.26750183105469
9.319268676056293,-0.1576239913702011,-2.035935878753662,-0.2076440006494522,33.07500076293945,-34.685001373291016,-11.952500343322754
9.339353306823655,0.0936959981918335,-2.0337400436401367,-0.8142279982566833,34.66749954223633,46.900001525878906,-4.742499828338623
9.359437937591018,0.5946279764175415,-1.5777039527893066,-0.8173999786376953,64.8550033569336,-1.4524999856948853,-2.887500047683716
9.37952256835838,0.537775993347168,-1.258795976638794,-0.6832000017166138,49.26250076293945,-10.447500228881836,12.5649995803833
9.399607199125743,-0.0478239990770816,-1.2592840194702148,-0.5233799815177917,9.782500267028809,7.175000190734863,15.662500381469728
9.419691829893106,-0.2540040016174316,-1.2180479764938354,-0.2286279946565628,-6.457499980926514,12.827500343322754,4.777500152587891
9.439776460660468,-0.4679919779300689,-1.2507439851760864,-0.2554679811000824,-24.51749992370605,9.397500038146973,2.484999895095825
9.45986109142783,-0.3150039911270141,-1.2534279823303225,-0.4670159816741943,-31.86750030517578,-10.482500076293944,4.21750020980835
9.479945722195193,-0.1910519897937774,-1.2336640357971191,-0.4757999777793884,-25.375,-32.619998931884766,6.369999885559082
9.500030352962556,-0.0039039999246597,-1.0923880338668823,-0.4230960011482239,-5.652500152587891,-47.915000915527344,3.5174999237060547
9.520114983729918,0.0490439981222152,-0.935252010822296,-0.3672199845314026,10.359999656677246,-49.209999084472656,-0.1749999970197677
9.540199614497281,-0.032940000295639,-0.7671359777450562,-0.3330599963665008,17.552499771118164,-44.93999862670898,1.2424999475479126
9.560284245264643,-0.0885719954967498,-0.7063800096511841,-0.3042680025100708,11.147500038146973,-43.3125,4.760000228881836
9.580368876032006,-0.046604000031948,-0.7361479997634888,-0.2693759799003601,5.792500019073486,-45.220001220703125,4.427500247955322
9.600453506799369,-0.0390399992465972,-0.7368800044059753,-0.2725479900836944,7.752500057220459,-47.407501220703125,2.4674999713897705
9.620538137566731,-0.0832040011882782,-0.7017439603805542,-0.2876760065555572,12.8100004196167,-52.0099983215332,2.625
9.640622768334094,-0.0588039979338645,-0.6412320137023926,-0.2674239873886108,13.107500076293944,-56.26250076293945,6.440000057220459
9.660707399101456,-0.0971119999885559,-0.5892599821090698,-0.366487979888916,15.890000343322754,-54.72249984741211,9.59000015258789
9.680792029868819,-0.1032119989395141,-0.4818999767303467,-0.3569719791412353,24.184999465942383,-49.71749877929688,7.385000228881836
9.700876660636181,-0.1527439951896667,-0.3113439977169037,-0.3025600016117096,26.232500076293945,-47.31999969482422,8.8725004196167
9.720961291403544,-0.2354599982500076,-0.4435919821262359,-0.3701480031013489,-9.345000267028809,-50.01499938964844,18.6200008392334
9.741045922170906,-0.293531984090805,-0.8230119943618774,-0.4101639986038208,-33.880001068115234,-54.897499084472656,21.752500534057617
9.761130552938269,-0.2371679991483688,-1.0674999952316284,-0.3916199803352356,-25.899999618530277,-59.9900016784668,12.967499732971191
9.781215183705632,-0.1761679947376251,-1.0801880359649658,-0.3889359831809997,-3.920000076293945,-61.28499984741211,-3.3600001335144043
9.801299814472994,-0.124439999461174,-1.0660359859466553,-0.2786479890346527,10.149999618530272,-58.04750061035156,-26.127500534057617
9.821384445240357,-0.1088239997625351,-1.0182119607925415,-0.2513200044631958,16.467500686645508,-52.53499984741211,-40.16249847412109
9.84146907600772,-0.0773480013012886,-0.9430599808692932,-0.3074399828910827,15.960000038146973,-49.10499954223633,-38.692501068115234
9.861553706775082,-0.0131759997457265,-0.9711199998855592,-0.3474559783935547,6.5625,-49.3849983215332,-24.290000915527344
9.881638337542444,-0.0090279998257756,-1.0404160022735596,-0.3481879830360412,1.347499966621399,-47.7400016784668,-10.885000228881836
9.901722968309807,-0.0356239974498748,-0.9974719882011414,-0.301827996969223,8.260000228881836,-40.65250015258789,-8.102499961853027
9.92180759907717,-0.0331839993596077,-0.9147560000419616,-0.2386319935321808,13.230000495910645,-31.01000022888184,-7.945000171661377
9.941892229844532,-0.0253759995102882,-0.8754720091819763,-0.2471719980239868,11.095000267028809,-22.837499618530277,-3.797500133514404
9.961976860611895,-0.003171999938786,-0.8901119828224182,-0.2418039888143539,5.897500038146973,-15.645000457763672,0.6474999785423279
9.982061491379257,-0.0358680002391338,-0.8954799771308899,-0.2139879912137985,-0.2275000065565109,-10.8149995803833,3.884999990463257
10.00214612214662,-0.0883279964327812,-0.8996279835700989,-0.2047159969806671,-6.177500247955322,-6.772500038146973,7.105000019073486
10.022230752913982,-0.0927200019359588,-0.9152439832687378,-0.206179991364479,-10.8149995803833,-1.924999952316284,9.362500190734863
10.042315383681345,-0.0607559978961944,-0.9579439759254456,-0.2076440006494522,-12.8100004196167,2.2925000190734863,7.769999980926514
10.062400014448707,-0.0446520000696182,-0.9740479588508606,-0.1983719915151596,-10.237500190734863,4.514999866485596,2.555000066757202
10.08248464521607,-0.0524599999189376,-0.935252010822296,-0.1969079971313476,-6.702499866485596,5.809999942779541,-1.924999952316284
10.102569275983432,-0.0914999991655349,-0.9564799666404724,-0.1795839965343475,-7.612500190734863,5.022500038146973,-5.057499885559082
10.122653906750795,-0.142984002828598,-0.9833199977874756,-0.1822679936885833,-7.892499923706055,0.7350000143051147,-10.045000076293944
10.142738537518158,-0.1507920026779174,-0.9520879983901978,-0.1485960036516189,-4.375,-5.425000190734863,-16.11750030517578
10.16282316828552,-0.1249279975891113,-0.920367956161499,-0.1324919909238815,-3.3424999713897705,-10.010000228881836,-19.0575008392334
10.182907799052883,-0.0824719965457916,-0.9201239943504332,-0.143227994441986,-4.340000152587891,-12.425000190734863,-20.59749984741211
10.202992429820245,-0.0356239974498748,-0.9320799708366394,-0.1778759956359863,-5.302500247955322,-12.949999809265137,-23.520000457763672
10.223077060587608,-0.0121999997645616,-0.9437919855117798,-0.1971519887447357,-6.002500057220459,-11.795000076293944,-27.05500030517578
10.24316169135497,-0.0012199999764561,-0.9877119660377502,-0.2042279988527298,-6.492499828338623,-9.082500457763672,-30.274999618530277
10.263246322122333,0.0605119988322258,-1.012112021446228,-0.1727519929409027,2.4674999713897705,3.640000104904175,-29.924999237060547
10.283330952889695,0.0505079999566078,-1.0050359964370728,-0.1756799966096878,0.0525000020861625,12.232500076293944,-22.78499984741211
10.303415583657058,-0.1012599989771843,-1.0767719745635986,-0.3357439935207367,-0.7699999809265137,16.047500610351562,-12.355000495910645
10.32350021442442,-0.1966639906167984,-1.2507439851760864,-0.4101639986038208,-3.202500104904175,12.547499656677246,4.21750020980835
10.343584845191783,-0.3071959912776947,-1.4364279508590698,-0.3611199855804443,-15.207500457763672,0.8224999904632568,18.39249992370605
10.363669475959146,-0.4045519828796386,-1.3859199285507202,-0.3552640080451965,-6.947500228881836,-11.602499961853027,8.329999923706055
10.383754106726508,-0.1768999993801117,-1.2143880128860474,-0.195932000875473,0.4200000166893005,-7.0,-17.86750030517578
10.40383873749387,-0.0775920003652572,-1.0531039237976074,-0.2354599982500076,6.492499828338623,-2.450000047683716,-33.845001220703125
10.423923368261233,-0.0222040005028247,-0.8476560115814209,-0.264983981847763,8.994999885559082,3.5,-45.16749954223633
10.444007999028596,-0.0495319999754428,-0.7315120100975037,-0.2845039963722229,1.347499966621399,10.220000267028809,-41.45750045776367
10.464092629795958,-0.1246839985251426,-0.7051599621772766,-0.3132959902286529,-10.692500114440918,10.447500228881836,-31.762500762939453
10.484177260563321,-0.1708000004291534,-0.7261439561843872,-0.3442839980125427,-6.335000038146973,2.765000104904175,-25.39249992370605
10.504261891330684,-0.1390800029039383,-0.7359039783477783,-0.3608759939670563,-11.34000015258789,-9.69499969482422,-16.642499923706055
10.524346522098046,-0.1359079927206039,-0.9020679593086244,-0.4374919831752777,-18.934999465942383,-21.489999771118164,-3.849999904632568
10.544431152865409,-0.1056519970297813,-1.0255320072174072,-0.4394440054893493,-9.922499656677246,-30.239999771118164,-5.232500076293945
10.564515783632771,-0.095891997218132,-1.064571976661682,-0.4250479936599731,2.9049999713897705,-32.182498931884766,-18.427499771118164
10.584600414400134,-0.0619760006666183,-1.0062559843063354,-0.3962559998035431,12.442500114440918,-33.28499984741211,-33.51250076293945
10.604685045167496,-0.0505079999566078,-0.9289079904556274,-0.3618519902229309,15.085000038146973,-36.92499923706055,-41.26499938964844
10.624769675934859,-0.0875959992408752,-0.8859639763832092,-0.3618519902229309,13.720000267028809,-42.647499084472656,-39.8125
10.644854306702221,-0.0790559947490692,-0.8779119849205017,-0.3757599890232086,12.005000114440918,-48.38750076293945,-34.877498626708984
10.664938937469584,-0.0707599967718124,-0.8335039615631104,-0.3933279812335968,11.392499923706056,-54.459999084472656,-32.07749938964844
10.685023568236947,-0.0505079999566078,-0.8139839768409729,-0.3921079933643341,6.40500020980835,-60.182498931884766,-31.587499618530277
10.705108199004309,-0.0131759997457265,-0.8198399543762207,-0.3989399969577789,-0.962499976158142,-63.90999984741211,-31.3075008392334
10.725192829771672,0.0353799983859062,-0.868395984172821,-0.423583984375,-10.045000076293944,-66.02750396728516,-29.03249931335449
10.745277460539034,0.0934519991278648,-0.949891984462738,-0.4221200048923492,-16.012500762939453,-66.09750366210938,-27.77250099182129
10.765362091306397,0.1036999970674514,-0.9913719892501832,-0.4028439819812774,-14.350000381469728,-65.94000244140625,-28.332500457763672
10.78544672207376,0.0800319984555244,-0.9921039938926696,-0.3860079944133758,-8.364999771118164,-66.43000030517578,-30.69499969482422
10.805531352841122,0.0829599946737289,-0.9533079862594604,-0.3374519944190979,-3.184999942779541,-66.63999938964844,-34.42250061035156
10.825615983608484,0.0592919997870922,-0.9225639700889589,-0.3157359957695007,-0.1749999970197677,-65.06500244140625,-34.15999984741211
10.845700614375847,0.0302559994161129,-0.843019962310791,-0.2920680046081543,6.632500171661377,-62.772499084472656,-33.529998779296875
10.86578524514321,0.0941839963197708,-0.8042240142822266,-0.3118319809436798,0.9100000262260436,-57.872501373291016,-23.362499237060547
10.885869875910572,0.1444479972124099,-0.8344799876213074,-0.3330599963665008,0.6825000047683716,-52.09749984741211,-19.02250099182129
10.905954506677935,0.1442039906978607,-0.8613199591636658,-0.2981680035591125,3.009999990463257,-47.442501068115234,-15.119999885559082
10.926039137445297,0.1180959939956665,-0.8486319780349731,-0.2286279946565628,8.242500305175781,-45.84999847412109,-11.6899995803833
10.94612376821266,0.1115079969167709,-0.852292001247406,-0.1810479909181594,10.605000495910645,-46.7599983215332,-10.675000190734863
10.966208398980022,0.0927200019359588,-0.8500959873199463,-0.2025199979543686,11.585000038146973,-45.150001525878906,-11.130000114440918
10.986293029747385,0.0346480011940002,-0.879863977432251,-0.2220399975776672,7.28000020980835,-45.67499923706055,-8.697500228881836
11.006377660514747,0.0004879999905824,-1.09580397605896,-0.1993480026721954,1.75,-48.125,7.192500114440918
11.02646229128211,0.0436760000884532,-1.0923880338668823,-0.1254159957170486,15.295000076293944,-50.57500076293945,3.902499914169312
11.046546922049473,0.1261480003595352,-1.0689640045166016,-0.1507920026779174,25.30500030517578,-56.209999084472656,-3.8324999809265137
11.066631552816835,0.205935999751091,-0.8988959789276123,-0.3352559804916382,24.27250099182129,-53.35750198364258,-6.737500190734863
11.086716183584198,0.0217159986495971,-1.1111760139465332,-0.7768959999084473,-23.030000686645508,-32.84749984741211,7.070000171661377
11.10680081435156,0.2037400007247924,-1.5528159141540527,-0.7027199864387512,-69.38749694824219,-30.450000762939453,12.704999923706056
11.126885445118923,0.2093520015478134,-1.8636720180511477,-0.7886079549789429,-57.66249847412109,-18.987499237060547,-5.775000095367432
11.146970075886285,0.2454639971256256,-1.617475986480713,-0.6400119662284851,2.9749999046325684,-6.894999980926514,-32.462501525878906
11.167054706653648,0.0121999997645616,-0.961359977722168,-0.5143519639968872,61.14500045776367,4.690000057220459,-35.47249984741211
11.18713933742101,-0.1969079971313476,-0.6387919783592224,-0.4038199782371521,66.56999969482422,-8.172499656677246,-21.717500686645508
11.207223968188373,-0.2422920018434524,-0.5104479789733887,-0.3254959881305694,63.40250015258789,-24.01000022888184,-12.704999923706056
11.227308598955736,-0.1029679998755455,-0.333547979593277,-0.285968005657196,67.25250244140625,-24.97249984741211,-7.577499866485596
11.247393229723098,0.0678320005536079,-0.2178919911384582,-0.2742559909820556,43.18999862670898,-18.58500099182129,-0.4200000166893005
11.26747786049046,0.1183400005102157,-0.6588000059127808,-0.3386719822883606,-24.01000022888184,-14.770000457763672,9.642499923706056
11.287562491257823,0.1156559959053993,-1.0372439622879028,-0.3659999966621399,-44.25749969482422,-11.34000015258789,10.079999923706056
11.307647122025186,0.0936959981918335,-1.2202439308166504,-0.3816159963607788,-24.09749984741211,-4.340000152587891,4.514999866485596
11.327731752792548,0.0966240018606185,-1.1253279447555542,-0.3777119815349579,6.440000057220459,1.190000057220459,-2.450000047683716
11.34781638355991,0.0880839973688125,-1.0518839359283447,-0.3437959849834442,15.032500267028809,4.847499847412109,1.2074999809265137
11.367901014327273,0.0334279984235763,-1.0238239765167236,-0.3630719780921936,16.485000610351562,10.97249984741211,8.032500267028809
11.387985645094636,-0.0366000011563301,-0.9745360016822816,-0.3625839948654175,19.31999969482422,15.68000030517578,11.952500343322754
11.408070275861999,-0.0749079957604408,-0.9076799750328064,-0.3042680025100708,21.997499465942383,17.604999542236328,13.107500076293944
11.428154906629361,-0.076615996658802,-0.8679080009460449,-0.2718159854412079,20.177499771118164,19.75749969482422,18.67250061035156
11.448239537396724,-0.0736880004405975,-0.8727880120277405,-0.2425359934568405,7.822500228881836,20.8075008392334,34.42250061035156
11.468324168164086,-0.0819839984178543,-0.8981639742851257,-0.2232600003480911,6.982500076293945,15.802499771118164,33.092498779296875
11.488408798931449,-0.0883279964327812,-0.8896239995956421,-0.236191987991333,-4.252500057220459,4.8125,29.27750015258789
11.508493429698811,-0.062219999730587,-0.838871955871582,-0.2439999878406524,4.252500057220459,11.550000190734863,20.71999931335449
11.528578060466174,-0.052216000854969,-0.7998319864273071,-0.2442439943552017,6.737500190734863,15.24250030517578,8.172499656677246
11.548662691233536,-0.0641719996929168,-0.7776280045509338,-0.2022759914398193,-0.8400000333786011,15.907500267028809,1.8550000190734863
11.568747322000899,-0.0732000023126602,-0.8415560126304626,-0.1734839975833892,-11.164999961853027,13.842499732971191,-3.0975000858306885
11.588831952768262,-0.0597799979150295,-0.8762039542198181,-0.1668960005044937,-15.4350004196167,11.532500267028809,-9.922499656677246
11.608916583535624,-0.0192760005593299,-0.904263973236084,-0.1825120002031326,-15.855000495910645,9.957500457763672,-17.53499984741211
11.629001214302987,0.028303999453783,-0.9115839600563048,-0.2005679905414581,-11.532500267028809,9.99250030517578,-24.86750030517578
11.64908584507035,0.0500199981033802,-0.9398880004882812,-0.1837320029735565,-7.122499942779541,11.042500495910645,-29.03249931335449
11.669170475837712,0.1073599979281425,-0.9969840049743652,-0.17323999106884,-5.512499809265137,11.899999618530272,-27.247499465942383
11.689255106605074,0.1500599980354309,-1.0169919729232788,-0.240339994430542,-4.934999942779541,17.360000610351562,-22.78499984741211
11.709339737372437,0.2339959889650344,-0.9952759742736816,-0.3130519986152649,-6.072500228881836,24.552499771118164,-22.03249931335449
11.7294243681398,0.3198840022087097,-1.0187000036239624,-0.2952399849891662,-8.364999771118164,32.689998626708984,-22.45249938964844
11.749508998907162,0.2896279990673065,-1.1416759490966797,-0.2222839891910553,-7.980000019073486,43.62749862670898,-14.822500228881836
11.769593629674524,0.269131988286972,-1.1094679832458496,-0.1586000025272369,-1.1375000476837158,54.16249847412109,-6.702499866485596
11.789678260441887,0.0785679966211319,-1.0862879753112793,-0.334524005651474,4.690000057220459,56.209999084472656,5.074999809265137
11.80976289120925,-0.0341599993407726,-1.1516799926757812,-0.440663993358612,0.7350000143051147,50.557498931884766,21.927499771118164
11.829847521976612,-0.1934919953346252,-1.5420799255371094,-0.4948319792747497,-27.842500686645508,37.59000015258789,45.20249938964844
11.849932152743975,-0.4301719963550567,-1.7009239196777344,-0.359167993068695,-18.53249931335449,20.842500686645508,49.682498931884766
11.870016783511337,-0.4592079818248749,-1.327359914779663,-0.2586399912834167,22.3125,24.01000022888184,19.82749938964844
11.8901014142787,-0.3013399839401245,-0.9030439853668212,-0.2710839807987213,39.25249862670898,21.40250015258789,-7.71750020980835
11.910186045046062,-0.130295991897583,-0.5270400047302246,-0.3172000050544739,47.022499084472656,29.24250030517578,-25.934999465942383
11.930270675813425,0.0392839983105659,-0.3757599890232086,-0.3118319809436798,16.362499237060547,29.75,-21.489999771118164
11.950355306580787,0.047335997223854,-0.4862920045852661,-0.2949959933757782,-7.892499923706055,29.137500762939453,-4.585000038146973
11.97043993734815,-0.0663679987192154,-0.6236639618873596,-0.3528240025043487,-19.792499542236328,21.06999969482422,10.850000381469728
11.990524568115513,-0.0873520001769065,-0.9123159646987916,-0.387472003698349,-36.38249969482422,4.287499904632568,21.104999542236328
12.010609198882875,-0.0602679997682571,-1.2068239450454712,-0.350383996963501,-35.209999084472656,-11.042500495910645,24.290000915527344
12.030693829650238,0.0148839997127652,-1.3861639499664309,-0.3442839980125427,-13.842499732971191,-19.040000915527344,13.440000534057615
12.0507784604176,-0.0409919992089271,-0.929152011871338,-0.3416000008583069,18.899999618530277,-19.915000915527344,-38.48250198364258
12.070863091184963,-0.0458719991147518,-0.7961719632148743,-0.3374519944190979,10.552499771118164,-20.177499771118164,-43.75
12.090947721952325,-0.0536799989640712,-0.7366359829902649,-0.3076840043067932,-0.612500011920929,-20.684999465942383,-35.54249954223633
12.111032352719688,-0.0075639998540282,-0.7427359819412231,-0.2896279990673065,-11.375,-21.700000762939453,-22.38249969482422
12.13111698348705,0.0883279964327812,-0.7805559635162354,-0.3098799884319305,-19.28499984741211,-22.627500534057617,-12.302499771118164
12.151201614254413,0.1647000014781952,-0.8530240058898926,-0.3318399786949157,-23.450000762939453,-22.17250061035156,-6.702499866485596
12.171286245021776,0.1991039961576461,-0.924515962600708,-0.3413559794425964,-22.225000381469727,-20.107500076293945,-5.022500038146973
12.191370875789138,0.1988599896430969,-1.0040600299835205,-0.3564839959144592,-19.46000099182129,-16.047500610351562,-6.142499923706055
12.2114555065565,0.152988001704216,-1.055299997329712,-0.3550199866294861,-13.230000495910645,-12.074999809265137,-10.97249984741211
12.231540137323863,0.0939399972558021,-1.010892033576965,-0.2949959933757782,-0.0525000020861625,-9.012499809265137,-17.290000915527344
12.251624768091226,0.052216000854969,-0.9230519533157348,-0.2693759799003601,11.585000038146973,-8.364999771118164,-18.725000381469727
12.271709398858588,0.0192760005593299,-0.7688440084457397,-0.2398519963026046,14.9975004196167,-9.642499923706056,-15.27750015258789
12.291794029625951,0.0331839993596077,-0.8561959862709045,-0.2464399933815002,-4.585000038146973,-12.880000114440918,-5.477499961853027
12.311878660393313,0.028303999453783,-0.929152011871338,-0.2557120025157928,-2.134999990463257,-13.702500343322754,-1.7324999570846558
12.331963291160676,0.0490439981222152,-0.8991400003433228,-0.1915400028228759,3.972500085830689,-16.65999984741211,-0.4550000131130218
12.352047921928039,0.0790559947490692,-0.9313479661941528,-0.2066679894924163,1.2599999904632568,-19.424999237060547,3.587500095367432
12.372132552695401,0.0956479981541633,-0.9794159531593324,-0.187391996383667,3.674999952316284,-24.88500022888184,0.4550000131130218
12.392217183462764,0.0793000012636184,-1.0187000036239624,-0.236191987991333,10.289999961853027,-25.427499771118164,-1.715000033378601
12.412301814230126,0.0402599982917308,-0.929639995098114,-0.2474159896373748,20.387500762939453,-24.762500762939453,-3.552500009536743
12.432386444997489,0.0509959980845451,-0.9091439843177797,-0.2105719894170761,18.74250030517578,-28.38500022888184,-0.0350000001490116
12.452471075764851,0.095160000026226,-0.9611159563064576,-0.2076440006494522,20.59749984741211,-31.71000099182129,2.134999990463257
12.472555706532214,0.1080919951200485,-1.0155279636383057,-0.1598199903964996,16.065000534057617,-35.0,-1.399999976158142
12.492640337299576,0.0614879988133907,-1.0450519323349,-0.1332239955663681,22.1200008392334,-40.337501525878906,-11.44499969482422
12.512724968066939,0.0551439970731735,-0.9515999555587769,-0.1564040035009384,22.417499542236328,-48.98250198364258,-20.002500534057617
12.532809598834302,0.0375759974122047,-0.9462319612503052,-0.3977199792861938,6.387499809265137,-44.60750198364258,-14.087499618530272
12.552894229601664,0.010491999797523,-1.250499963760376,-0.4911719858646393,-22.802499771118164,-43.977500915527344,-5.355000019073486
12.572978860369027,0.1893439888954162,-1.4220319986343384,-0.5690079927444458,-35.70000076293945,-40.52999877929688,-10.324999809265137
12.59306349113639,0.317931979894638,-1.4083679914474487,-0.6314719915390015,-25.252500534057617,-21.700000762939453,-20.52750015258789
12.613148121903752,0.3474559783935547,-1.3363879919052124,-0.5216720104217529,-12.31999969482422,-5.232500076293945,-25.112499237060547
12.633232752671114,0.2452199906110763,-1.1023919582366943,-0.4550600051879883,15.417500495910645,0.699999988079071,-19.54750061035156
12.653317383438477,-0.109555996954441,-0.7154079675674438,-0.3147599995136261,35.73500061035156,-15.190000534057615,2.922499895095825
12.67340201420584,-0.0783239975571632,-0.5965799689292908,-0.2566879987716675,39.567501068115234,-21.332500457763672,9.852499961853027
12.693486644973202,-0.0280600003898143,-0.4355399906635284,-0.2369239926338195,39.935001373291016,-20.125,13.895000457763672
12.713571275740565,-0.0187879987061023,-0.4696999788284302,-0.2666919827461242,2.6600000858306885,-16.712499618530273,15.855000495910645
12.733655906507927,-0.0697840005159378,-0.7976359724998474,-0.3247639834880829,-36.15499877929688,-10.53499984741211,11.6899995803833
12.75374053727529,0.0126879997551441,-1.2051160335540771,-0.3577039837837219,-46.83000183105469,-11.217499732971191,4.025000095367432
12.773825168042652,0.0585599988698959,-1.2307360172271729,-0.3779560029506683,-13.702500343322754,-6.632500171661377,-1.1725000143051147
12.793909798810015,0.0358680002391338,-1.0579839944839478,-0.3984519839286804,7.227499961853027,-6.807499885559082,5.582499980926514
12.813994429577377,0.0124439997598528,-1.001376032829285,-0.4038199782371521,1.924999952316284,-5.320000171661377,18.23500061035156
12.83407906034474,-0.0102479998022317,-0.9740479588508606,-0.3562400043010711,6.40500020980835,-7.420000076293945,22.46999931335449
12.854163691112102,-0.056607998907566,-1.006011962890625,-0.3132959902286529,11.199999809265137,-6.772500038146973,21.997499465942383
12.874248321879465,-0.0607559978961944,-0.932811975479126,-0.2705959975719452,20.107500076293945,-5.880000114440918,18.479999542236328
12.894332952646828,-0.0453839972615242,-0.8415560126304626,-0.2271640002727508,20.49250030517578,-4.742499828338623,18.270000457763672
12.91441758341419,-0.0585599988698959,-0.8369199633598328,-0.1903200000524521,12.005000114440918,-5.582499980926514,22.68000030517578
12.934502214181553,-0.0583159998059272,-0.9196360111236572,-0.195932000875473,4.742499828338623,-8.119999885559082,24.412500381469727
12.954586844948915,-0.0363559983670711,-0.9484279751777648,-0.2025199979543686,7.244999885559082,-9.414999961853027,19.809999465942383
12.974671475716278,-0.0141519997268915,-0.9247599840164183,-0.2220399975776672,12.109999656677246,-9.170000076293944,14.612500190734863
12.99475610648364,0.0212280005216598,-0.8613199591636658,-0.2308239936828613,14.524999618530272,-8.067500114440918,7.699999809265137
13.014840737251003,0.0407480001449584,-0.8210600018501282,-0.2088640034198761,10.885000228881836,-6.247499942779541,0.5425000190734863
13.034925368018365,0.0214719995856285,-0.8091039657592773,-0.1795839965343475,3.884999990463257,-4.340000152587891,-4.760000228881836
13.055009998785728,-0.0173240005970001,-0.826915979385376,-0.1561599969863891,-3.884999990463257,-2.2049999237060547,-8.119999885559082
13.07509462955309,-0.0190319996327161,-0.8676639795303345,-0.1554279923439026,-10.8149995803833,-0.3499999940395355,-10.90250015258789
13.095179260320453,0.0058559998869895,-0.915731966495514,-0.1727519929409027,-16.625,0.1749999970197677,-15.207500457763672
13.115263891087816,0.009515999816358,-0.9764879941940308,-0.1956879943609237,-17.360000610351562,-0.2100000083446502,-21.700000762939453
13.135348521855178,0.0361119993031024,-1.0040600299835205,-0.1978839933872223,-10.324999809265137,1.0149999856948853,-27.247499465942383
13.15543315262254,0.0470919981598854,-0.9738039970397948,-0.1754359900951385,-5.355000019073486,3.430000066757202,-30.100000381469727
13.175517783389903,0.0178119987249374,-0.9862479567527772,-0.2054480016231537,-2.8350000381469727,3.4124999046325684,-28.962499618530277
13.195602414157266,0.0863759964704513,-0.9598959684371948,-0.2225279957056045,4.112500190734863,6.300000190734863,-30.34499931335449
13.215687044924628,0.1995919942855835,-1.0150399208068848,-0.1849519908428192,1.5575000047683716,13.037500381469728,-26.31999969482422
13.235771675691991,0.2657159864902496,-1.0950720310211182,-0.1600639969110489,-2.309999942779541,22.434999465942383,-17.27250099182129
13.255856306459354,0.0253759995102882,-1.014796018600464,-0.3337920010089874,4.304999828338623,33.880001068115234,-4.777500152587891
13.275940937226716,-0.1080919951200485,-1.2217079401016235,-0.4843399822711944,-10.605000495910645,32.74250030517578,16.905000686645508
13.296025567994079,-0.2869440019130707,-1.6033239364624023,-0.4609159827232361,-31.412500381469727,23.537500381469727,42.26250076293945
13.316110198761441,-0.3982079923152923,-1.69897198677063,-0.3140279948711395,-34.334999084472656,-13.05500030517578,50.04999923706055
13.336194829528804,-0.3735640048980713,-1.2817319631576538,-0.17323999106884,16.712499618530273,-19.0575008392334,22.96000099182129
13.356279460296166,-0.2010560035705566,-1.050176024436951,-0.1947119981050491,28.192501068115234,-19.040000915527344,-4.742499828338623
13.376364091063529,-0.0285479985177516,-0.765671968460083,-0.2674239873886108,36.33000183105469,-10.272500038146973,-24.149999618530277
13.396448721830891,0.0863759964704513,-0.4694559872150421,-0.2788919806480407,38.48250198364258,1.7324999570846558,-31.045000076293945
13.416533352598254,0.0722239986062049,-0.4545719921588897,-0.3242760002613067,13.789999961853027,8.942500114440918,-24.5
13.436617983365617,-0.0307439994066953,-0.4304159879684448,-0.3098799884319305,5.809999942779541,9.800000190734863,-11.619999885559082
13.456702614132979,-0.0753960013389587,-0.6553840041160583,-0.358924001455307,-19.739999771118164,-8.417500495910645,15.487500190734863
13.476787244900342,-0.0222040005028247,-1.077991962432861,-0.4506679773330688,-33.7400016784668,-21.227500915527344,40.477500915527344
13.496871875667704,0.0129319997504353,-1.3232120275497437,-0.4931239783763885,-26.774999618530277,-25.30500030517578,40.040000915527344
13.516956506435067,-0.003171999938786,-1.205847978591919,-0.4250479936599731,8.609999656677246,-18.23500061035156,7.857500076293945
13.53704113720243,-0.0836919993162155,-1.0367560386657717,-0.4089439809322357,14.489999771118164,-20.877500534057617,-24.237499237060547
13.557125767969792,-0.1078479960560798,-0.9799039959907532,-0.3701480031013489,1.715000033378601,-25.67250061035156,-36.17250061035156
13.577210398737154,-0.1378600001335144,-1.0228480100631714,-0.3350119888782501,-2.7300000190734863,-31.850000381469727,-39.060001373291016
13.597295029504517,-0.1322479993104934,-0.8925519585609436,-0.313539981842041,3.9375,-38.709999084472656,-42.192501068115234
13.61737966027188,-0.0624639987945556,-0.7915359735488892,-0.2964600026607513,8.802499771118164,-43.540000915527344,-40.775001525878906
13.637464291039242,-0.0034159999340772,-0.7258999943733215,-0.2942639887332916,4.8125,-50.45249938964844,-35.192501068115234
13.657548921806605,-0.0161039996892213,-0.7244359850883484,-0.3486759960651397,-5.460000038146973,-57.907501220703125,-22.802499771118164
13.677633552573967,0.0036599999293684,-0.8030039668083191,-0.3620959818363189,-15.574999809265137,-63.71749877929688,-11.392499923706056
13.69771818334133,-0.0129319997504353,-0.9201239943504332,-0.3437959849834442,-21.29750061035156,-69.6500015258789,-8.34749984741211
13.717802814108692,-0.0151279997080564,-1.0201640129089355,-0.333547979593277,-20.842500686645508,-76.38749694824219,-11.4975004196167
13.737887444876055,-0.0143959997221827,-1.048467993736267,-0.3350119888782501,-14.332500457763672,-80.23750305175781,-19.739999771118164
13.757972075643417,-0.0014639999717473,-0.9933239817619324,-0.3174439966678619,-4.287499904632568,-82.04000091552734,-28.47249984741211
13.77805670641078,-0.0024399999529123,-0.9035319685935974,-0.3115879893302917,1.5225000381469729,-82.28500366210938,-29.1200008392334
13.798141337178143,0.0366000011563301,-0.9401319622993468,-0.3620959818363189,-1.399999976158142,-81.19999694824219,-22.38249969482422
13.818225967945505,0.1022359952330589,-0.9464759826660156,-0.4135800004005432,-2.765000104904175,-75.07499694824219,-15.890000343322754
13.838310598712868,0.0573399998247623,-0.957211971282959,-0.3081719875335693,-9.537500381469728,-72.7125015258789,-15.662500381469728
13.85839522948023,0.0890600010752677,-0.9374479651451112,-0.3601439893245697,-5.652500152587891,-83.31749725341797,-29.68000030517578
13.878479860247593,0.0980879962444305,-0.8998720049858093,-0.3735640048980713,-4.059999942779541,-82.28500366210938,-29.732500076293945
13.898564491014955,0.0395279973745346,-0.8993839621543884,-0.3274479806423187,-1.1024999618530271,-83.79000091552734,-25.427499771118164
13.918649121782318,0.0370879992842674,-0.9169519543647766,-0.3037799894809723,3.640000104904175,-90.54499816894533,-21.21000099182129
13.93873375254968,0.0261080004274845,-0.8801079988479614,-0.285968005657196,12.774999618530272,-98.6125030517578,-18.82999992370605
13.958818383317043,-0.0112239997833967,-0.8835240006446838,-0.3057319819927215,14.140000343322754,-106.52249908447266,-13.300000190734863
13.978903014084405,-0.0578279979526996,-0.905239999294281,-0.3630719780921936,10.09749984741211,-109.77750396728516,-7.769999980926514
13.998987644851768,-0.0846679955720901,-0.9081679582595824,-0.4592079818248749,8.154999732971191,-109.41000366210938,-5.355000019073486
14.01907227561913,-0.1171199977397918,-0.9667279720306396,-0.5775479674339294,-11.112500190734863,-105.03500366210938,-0.8575000166893005
14.039156906386493,-0.1198039948940277,-1.0452959537506104,-0.5472919940948486,-11.515000343322754,-98.27999877929688,-4.707499980926514
14.059241537153856,-0.085887998342514,-1.007475972175598,-0.5438759922981262,-18.462499618530277,-88.07749938964844,-13.859999656677246
14.079326167921218,-0.0819839984178543,-0.9091439843177797,-0.493367999792099,-26.967500686645508,-81.93499755859375,-17.90250015258789
14.09941079868858,-0.1254159957170486,-0.8552199602127075,-0.4248040020465851,-33.31999969482422,-85.55750274658203,-16.450000762939453
14.119495429455943,-0.1720200031995773,-0.8112999796867371,-0.3735640048980713,-31.395000457763672,-93.625,-12.932499885559082
14.139580060223306,-0.1932480037212371,-0.7502999901771545,-0.3679519891738891,-24.6924991607666,-98.85749816894533,-8.802499771118164
14.159664690990668,-0.2159399986267089,-0.7224839925765991,-0.3645359873771667,-21.15749931335449,-99.75,-2.327500104904175
14.179749321758031,-0.220331996679306,-0.8164240121841431,-0.3777119815349579,-26.31999969482422,-95.4625015258789,1.0325000286102295
14.199833952525394,-0.2139879912137985,-0.8988959789276123,-0.4138239920139313,-27.51000022888184,-88.98750305175781,-4.602499961853027
14.219918583292756,-0.1373720020055771,-0.8476560115814209,-0.444811999797821,-26.82749938964844,-81.0425033569336,-9.449999809265137
14.240003214060119,-0.076615996658802,-0.738099992275238,-0.4040639996528625,-27.457500457763672,-73.98999786376953,-3.8324999809265137
14.260087844827481,-0.0836919993162155,-0.5812079906463623,-0.3447719812393188,-27.247499465942383,-65.90499877929688,4.497499942779541
14.280172475594844,-0.1112639978528022,-0.5265519618988037,-0.2308239936828613,-33.70500183105469,-60.63750076293945,6.457499980926514
14.300257106362206,-0.1124840006232261,-0.5633959770202637,-0.1481079906225204,-39.67250061035156,-55.14250183105469,3.7100000381469727
14.320341737129569,-0.175924003124237,-0.640500009059906,-0.2322880029678344,-43.71500015258789,-46.00749969482422,2.2225000858306885
14.340426367896931,-0.0512399971485137,-0.5721799731254578,-0.2283839881420135,-45.90250015258789,-36.64500045776367,2.1875
14.360510998664294,0.1061399951577186,-0.6422079801559448,-0.3076840043067932,-49.80500030517578,-21.82250022888184,5.197500228881836
14.380595629431657,0.2486359924077987,-0.6509919762611389,-0.2525399923324585,-42.157501220703125,-14.80500030517578,0.7699999809265137
14.40068026019902,0.2154520004987716,-0.6439160108566284,-0.3042680025100708,-34.70249938964844,1.8025000095367432,-12.494999885559082
14.420764890966382,0.0173240005970001,-0.6590439677238464,-0.4018679857254028,-31.21999931335449,13.387499809265137,-17.360000610351562
14.440849521733744,-0.1424959897994995,-0.7832399606704712,-0.4040639996528625,-38.79750061035156,9.975000381469728,-4.777500152587891
14.460934152501107,-0.0651479959487915,-0.9708759784698486,-0.3381839990615845,-15.487500190734863,-5.110000133514404,-0.5774999856948853
14.48101878326847,-0.1978839933872223,-1.1143479347229004,-0.4338319897651672,-11.00749969482422,-5.96750020980835,-11.182499885559082
14.501103414035832,-0.2005679905414581,-1.362007975578308,-0.5421679615974426,-4.8125,-4.21750020980835,-18.44499969482422
14.521188044803194,-0.0309880003333091,-1.2448879480361938,-0.460671991109848,16.764999389648438,-7.752500057220459,-12.460000038146973
14.541272675570557,-0.0309880003333091,-1.2290279865264893,-0.6390359997749329,12.232500076293944,-7.752500057220459,-0.699999988079071
14.56135730633792,-0.1122400015592575,-1.367864012718201,-0.6619719862937927,8.574999809265137,0.0874999985098838,-3.902499914169312
14.581441937105282,-0.2012999951839447,-1.5691639184951782,-0.725167989730835,0.7175000309944153,4.917500019073486,-11.375
14.601526567872645,-0.2866999804973602,-1.6277239322662354,-0.9306159615516664,2.555000066757202,19.72249984741211,-20.42250061035156
14.621611198640007,-0.3999159932136535,-1.71288001537323,-1.1143479347229004,1.347499966621399,19.61750030517578,-20.037500381469727
14.64169582940737,-0.3169559836387634,-1.8856319189071653,-0.9364719986915588,-2.5374999046325684,11.672499656677246,-9.69499969482422
14.661780460174732,-0.2801119983196258,-2.22381591796875,-0.9474520087242126,1.995000004768372,12.039999961853027,-7.454999923706055
14.681865090942095,-0.1893439888954162,-2.378756046295166,-1.0821399688720703,19.70499992370605,8.34749984741211,-9.11750030517578
14.701949721709457,-0.100283995270729,-2.502219915390014,-1.102147936820984,19.092500686645508,-4.690000057220459,-4.795000076293945
14.72203435247682,0.0112239997833967,-2.626659870147705,-1.1692479848861694,9.9399995803833,-1.2949999570846558,-6.579999923706055
14.742118983244183,-0.1629920005798339,-2.929219961166382,-1.2841719388961792,11.40999984741211,38.36000061035156,-18.44499969482422
14.762203614011545,-0.3374519944190979,-2.4834320545196533,-1.1633919477462769,83.63249969482422,32.8650016784668,-68.23249816894531
14.782288244778908,-0.5485119819641113,-1.4012919664382937,-0.9128040075302124,153.22999572753906,1.4350000619888306,-99.97750091552734
14.80237287554627,-0.4189479947090149,-0.6795399785041809,-0.5890159606933594,171.90249633789062,-36.66249847412109,-86.36250305175781
14.822457506313633,-0.3252519965171814,-0.0609999969601631,-0.3720999956130981,188.63250732421875,-26.670000076293945,-77.47250366210938
14.842542137080995,-0.2439999878406524,0.7534719705581665,-0.3701480031013489,214.1125030517578,-5.162499904632568,-70.7699966430664
14.862626767848358,-0.1171199977397918,1.2278079986572266,-0.7634760141372681,119.13999938964844,-10.587499618530272,-21.262500762939453
14.88271139861572,-0.0200079996138811,0.510204017162323,-1.0865319967269895,-14.017499923706056,31.71000099182129,8.470000267028809
14.902796029383083,-0.0351359993219375,0.9896639585494996,0.052216000854969,8.802499771118164,13.96500015258789,14.630000114440918
14.922880660150446,0.6710000038146973,-0.2701079845428467,1.3734760284423828,-106.8550033569336,-52.83250045776367,72.22250366210938
14.942965290917808,-0.3164680004119873,-1.0418800115585327,-0.3842999935150146,-65.0999984741211,70.9800033569336,28.997499465942383
14.96304992168517,0.0117119997739791,0.0854000002145767,0.3118319809436798,73.74500274658203,23.13500022888184,-18.95249938964844
14.983134552452533,0.0034159999340772,0.3237879872322082,0.2152079939842224,30.76499938964844,17.639999389648438,-7.647500038146973
15.003219183219896,-0.0207399986684322,-0.0505079999566078,0.1088239997625351,-30.362499237060547,0.4375,15.015000343322754
15.023303813987258,-0.0219599995762109,-0.2703520059585571,-0.0300120003521442,-45.34249877929688,-12.005000114440918,16.55500030517578
15.043388444754621,0.0775920003652572,0.1349319964647293,0.006343999877572,12.390000343322754,-9.904999732971191,-9.100000381469728
15.063473075521983,0.0453839972615242,0.1664080023765564,0.0234239995479583,11.217499732971191,-3.377500057220459,-7.034999847412109
15.083557706289346,0.0631959959864616,-0.010491999797523,0.0368440002202987,-3.867500066757202,-0.2100000083446502,-1.9774999618530276
15.103642337056709,0.0927200019359588,-0.2052039951086044,0.0275719985365867,-6.912499904632568,-2.362499952316284,-3.237499952316284
15.123726967824071,0.0531919971108436,-0.1198039948940277,-0.020983999595046,6.807499885559082,0.4550000131130218,-8.27750015258789
15.143811598591434,0.0326960012316703,-0.0304999984800815,-0.0539239980280399,10.149999618530272,1.4175000190734863,-8.609999656677246
15.163896229358796,-0.0014639999717473,-0.0092719998210668,-0.0797879993915557,7.682499885559082,2.502500057220459,-6.650000095367432
15.183980860126159,-0.0029279999434947,0.0263519994914531,-0.1268799901008606,4.865000247955322,-0.332500010728836,-5.40749979019165
15.204065490893521,0.0102479998022317,0.0578279979526996,-0.2793799936771393,-1.715000033378601,-5.914999961853027,-1.4874999523162842
15.224150121660884,-0.0631959959864616,0.1019919961690902,-0.801539957523346,-23.274999618530277,8.102499961853027,8.27750015258789
15.244234752428246,-0.6570919752120972,-0.2449759989976883,-1.5781919956207275,-84.62999725341797,47.98500061035156,29.067501068115234
15.264319383195609,-1.1960879564285278,-1.5118240118026731,-1.1292319297790527,-260.5924987792969,-5.442500114440918,57.959999084472656
15.284404013962972,1.120203971862793,-6.329847812652588,-0.2657159864902496,-415.5375061035156,-214.2700042724609,75.82749938964844
15.304488644730334,0.0361119993031024,-4.434944152832031,-2.345327854156494,-130.1649932861328,-22.872499465942383,125.5625
15.324573275497697,-0.2522960007190704,-2.798679828643799,-1.6138160228729248,79.22250366210938,24.237499237060547,-71.3125
15.34465790626506,0.6827119588851929,-1.488155961036682,-0.1634799987077713,155.9949951171875,-9.869999885559082,-124.25
15.364742537032422,0.1661639958620071,-1.2395199537277222,-0.8581479787826538,63.94499969482422,55.755001068115234,-40.28499984741211
15.384827167799784,0.0412359982728958,-1.5298799276351929,-0.7969039678573608,6.720000267028809,12.460000038146973,14.03499984741211
15.404911798567147,-0.124439999461174,-1.5491559505462646,-0.5641279816627502,6.894999980926514,9.1875,10.779999732971191
15.42499642933451,-0.1827559918165207,-1.5225600004196167,-0.4772639870643616,11.725000381469728,1.680000066757202,2.6600000858306885
15.445081060101872,-0.1327359974384308,-1.2082879543304443,-0.4784840047359466,22.592500686645508,0.0874999985098838,-2.940000057220459
15.465165690869235,-0.0539239980280399,-0.8661999702453613,-0.468968003988266,26.6875,-3.3424999713897705,-7.71750020980835
15.485250321636597,-0.0014639999717473,-0.7737239599227905,-0.5106920003890991,9.5024995803833,-6.422500133514404,-9.029999732971191
15.50533495240396,-0.0326960012316703,-0.8171559572219849,-0.3986960053443908,-2.450000047683716,-8.067500114440918,-11.217499732971191
15.525419583171322,-0.0446520000696182,-0.8115440011024475,-0.3259840011596679,-4.53249979019165,-16.170000076293945,-6.440000057220459
15.545504213938685,-0.0131759997457265,-0.7671359777450562,-0.284991979598999,9.3100004196167,-20.649999618530277,-2.922499895095825
15.565588844706047,-0.0524599999189376,-0.6287879943847656,-0.2796239852905273,18.917499542236328,-21.38500022888184,-2.1700000762939453
15.58567347547341,-0.0668559968471527,-0.680027961730957,-0.3342799842357635,17.184999465942383,-21.979999542236328,-3.884999990463257
15.605758106240772,-0.0605119988322258,-0.688323974609375,-0.4130919873714447,16.677499771118164,-20.26499938964844,-5.09250020980835
15.625842737008135,-0.071492001414299,-0.693448007106781,-0.4482280015945434,12.949999809265137,-13.93000030517578,-0.2450000047683715
15.645927367775498,-0.1825120002031326,-0.7258999943733215,-0.3764919936656952,10.02750015258789,-10.342499732971191,-0.8224999904632568
15.66601199854286,-0.2127679884433746,-0.7324879765510559,-0.3584359884262085,13.212499618530272,-12.355000495910645,-2.887500047683716
15.686096629310223,-0.2130119949579239,-0.6612399816513062,-0.3494080007076263,18.1299991607666,-14.630000114440918,0.8400000333786011
15.706181260077585,-0.2837719917297363,-0.6097559928894043,-0.4206559956073761,14.157500267028809,-20.09000015258789,8.1899995803833
15.726265890844948,-0.2513200044631958,-0.6290320158004761,-0.4021120071411133,3.849999904632568,-32.98749923706055,8.907500267028809
15.74635052161231,-0.2339959889650344,-0.7932440042495728,-0.4382239878177643,-12.670000076293944,-39.54999923706055,8.71500015258789
15.766435152379673,-0.1883679926395416,-0.9445239901542664,-0.4980039894580841,-24.5,-41.685001373291016,1.6100000143051147
15.786519783147035,-0.1327359974384308,-0.9486719965934752,-0.4535959959030151,-19.424999237060547,-42.42000198364258,-8.78499984741211
15.806604413914398,-0.1010159999132156,-0.9171959757804872,-0.3257399797439575,-12.337499618530272,-43.3650016784668,-18.602500915527344
15.82668904468176,-0.0936959981918335,-0.8737639784812927,-0.2791360020637512,-9.59000015258789,-45.09749984741211,-22.190000534057617
15.846773675449123,-0.1261480003595352,-0.8776679635047913,-0.3071959912776947,-17.114999771118164,-51.95750045776367,-18.09499931335449
15.866858306216486,-0.1510359942913055,-1.0235799551010132,-0.3684400022029876,-29.81999969482422,-64.88999938964844,-9.520000457763672
15.886942936983848,-0.1383479982614517,-1.0716480016708374,-0.4108960032463074,-25.51499938964844,-71.97750091552734,-3.920000076293945
15.90702756775121,-0.1549399942159652,-1.0435879230499268,-0.3940599858760834,-16.537500381469727,-73.29000091552734,-3.377500057220459
15.927112198518573,-0.1356640011072158,-1.0731120109558103,-0.3801519870758056,-9.869999885559082,-70.29750061035156,-8.242500305175781
15.947196829285936,-0.0546559989452362,-0.9994239807128906,-0.3830800056457519,5.337500095367432,-63.47249984741211,-18.690000534057617
15.967281460053298,0.0334279984235763,-0.87254399061203,-0.3811279833316803,14.4375,-56.50749969482422,-22.38249969482422
15.987366090820661,0.033671997487545,-0.8200839757919312,-0.370635986328125,7.490000247955322,-54.72249984741211,-15.172499656677246
16.007450721588025,0.0256199985742568,-0.9640439748764038,-0.3908880054950714,-9.9399995803833,-59.185001373291016,-3.867500066757202
16.02753535235539,-0.0495319999754428,-0.9269559979438782,-0.3333039879798889,0.2800000011920929,-52.77999877929688,-0.0350000001490116
16.047619983122754,-0.0932080000638961,-0.905239999294281,-0.2740119993686676,0.6474999785423279,-49.45500183105469,0.3849999904632568
16.06770461389012,-0.0978439971804618,-0.9076799750328064,-0.2620559930801391,-1.6100000143051147,-46.130001068115234,-4.112500190734863
16.087789244657483,-0.0692960023880004,-0.9257360100746156,-0.2610799968242645,-1.277500033378601,-45.48250198364258,-7.490000247955322
16.107873875424847,-0.0736880004405975,-0.9681919813156128,-0.3089039921760559,-0.4900000095367431,-46.28749847412109,-6.667500019073486
16.12795850619221,-0.1241960003972053,-0.9821000099182128,-0.3369639813899994,1.9774999618530276,-45.5,-6.667500019073486
16.148043136959576,-0.1893439888954162,-0.9508680105209352,-0.330375999212265,4.375,-42.94499969482422,-8.137499809265137
16.16812776772694,-0.1893439888954162,-0.9330559968948364,-0.321835994720459,3.377500057220459,-41.45750045776367,-9.887499809265137
16.188212398494304,-0.1771439909934997,-0.9140239953994752,-0.3367199897766113,1.924999952316284,-41.45750045776367,-10.53499984741211
16.20829702926167,-0.1610399931669235,-0.900115966796875,-0.3272039890289306,0.3849999904632568,-42.36750030517578,-10.46500015258789
16.228381660029033,-0.1539639979600906,-0.892795979976654,-0.3128080070018768,-0.6650000214576721,-41.22999954223633,-10.954999923706056
16.248466290796397,-0.1202920004725456,-0.9462319612503052,-0.3042680025100708,-3.674999952316284,-36.73250198364258,-13.5625
16.26855092156376,-0.0941839963197708,-0.9828319549560548,-0.2942639887332916,-1.2074999809265137,-32.602500915527344,-17.517499923706055
16.288635552331126,-0.0680759996175766,-0.9123159646987916,-0.2874319851398468,5.179999828338623,-26.25,-22.5049991607666
16.30872018309849,-0.0295239984989166,-0.8208159804344177,-0.2593719959259033,5.617499828338623,-20.42250061035156,-25.252500534057617
16.328804813865855,0.0068319998681545,-0.8225240111351013,-0.205935999751091,-1.347499966621399,-17.43000030517578,-24.552499771118164
16.34888944463322,0.0053679998964071,-0.8764479756355286,-0.187391996383667,-9.99250030517578,-15.24250030517578,-21.700000762939453
16.368974075400583,-0.0458719991147518,-0.9198799729347228,-0.2052039951086044,-14.244999885559082,-11.480000495910645,-21.350000381469727
16.389058706167948,-0.061243999749422,-0.9808799624443054,-0.2052039951086044,-13.96500015258789,-7.244999885559082,-25.09499931335449
16.409143336935312,-0.0192760005593299,-0.9979599714279176,-0.2032520025968551,-11.515000343322754,-0.6650000214576721,-27.07250022888184
16.429227967702676,0.0278159994632005,-0.9747799634933472,-0.1878799945116043,-9.467499732971191,5.670000076293945,-26.19750022888184
16.44931259847004,0.0470919981598854,-0.949404001235962,-0.1947119981050491,-7.840000152587891,7.28000020980835,-24.09749984741211
16.469397229237405,0.0346480011940002,-0.9864919781684875,-0.185928001999855,-7.840000152587891,8.592499732971191,-23.1875
16.48948186000477,-0.1337119936943054,-1.0728679895401,-0.2676680088043213,-9.5024995803833,10.43000030517578,-21.104999542236328
16.509566490772134,-0.2147199958562851,-1.2146320343017578,-0.3154920041561126,-13.579999923706056,10.255000114440918,-12.407500267028809
16.529651121539498,-0.2810879945755005,-1.387139916419983,-0.2969479858875274,-16.520000457763672,8.75,-3.692500114440918
16.549735752306862,-0.3574599921703338,-1.1807159185409546,-0.3111000061035156,-2.747499942779541,0.5074999928474426,-7.490000247955322
16.569820383074227,-0.3023159801959991,-1.1292319297790527,-0.3525799810886383,-6.615000247955322,-4.882500171661377,-17.167499542236328
16.58990501384159,-0.2837719917297363,-1.2134119272232056,-0.3894239962100982,-13.230000495910645,-12.145000457763672,-20.49250030517578
16.609989644608955,-0.234727993607521,-1.1241079568862915,-0.3418439924716949,-7.192500114440918,-16.537500381469727,-24.01000022888184
16.63007427537632,-0.2322880029678344,-0.915731966495514,-0.3035359978675842,3.9375,-16.957500457763672,-33.057498931884766
16.650158906143684,-0.1688479930162429,-0.7183359861373901,-0.2827959954738617,10.989999771118164,-13.020000457763672,-39.11249923706055
16.670243536911048,-0.0880839973688125,-0.6080479621887207,-0.314516007900238,9.835000038146973,-8.697500228881836,-38.09749984741211
16.690328167678413,-0.0207399986684322,-0.6268360018730164,-0.3723439872264862,0.5425000190734863,-8.697500228881836,-30.100000381469727
16.710412798445777,-0.0387960001826286,-0.7319999933242798,-0.4684799909591675,-5.057499885559082,-15.172499656677246,-19.092500686645508
16.73049742921314,-0.0292799994349479,-0.9350079894065856,-0.4953199923038482,-8.907500267028809,-26.530000686645508,-10.307499885559082
16.750582059980506,-0.0356239974498748,-1.0509079694747925,-0.4770199954509735,-1.8550000190734863,-36.470001220703125,-12.845000267028809
16.77066669074787,-0.0700279995799064,-1.044319987297058,-0.4716520011425018,8.329999923706055,-45.02750015258789,-26.75749969482422
16.790751321515234,-0.0971119999885559,-0.9393999576568604,-0.4384679794311523,16.11750030517578,-49.85750198364258,-38.744998931884766
16.8108359522826,-0.0719799995422363,-0.8515599966049194,-0.4306599795818329,11.375,-53.07749938964844,-45.0625
16.830920583049963,-0.0087839998304843,-0.8669319748878479,-0.4401759803295135,4.829999923706055,-56.50749969482422,-45.51750183105469
16.851005213817327,-0.0202520005404949,-0.8249639868736267,-0.4467639923095703,9.975000381469728,-66.79750061035156,-45.79750061035156
16.87108984458469,-0.0448959991335868,-0.7776280045509338,-0.4399319887161255,6.702499866485596,-73.8499984741211,-43.032501220703125
16.891174475352056,-0.0017079999670386,-0.7834839820861816,-0.4289519786834717,-2.2225000858306885,-78.8375015258789,-40.915000915527344
16.91125910611942,0.0734440013766288,-0.8356999754905701,-0.4528639912605285,-9.170000076293944,-79.37999725341797,-39.27000045776367
16.931343736886785,0.1107759997248649,-0.8847439885139465,-0.4699440002441406,-11.270000457763672,-77.31500244140625,-39.07749938964844
16.95142836765415,0.1029679998755455,-0.9425719976425172,-0.4216319918632507,-11.987500190734863,-75.37249755859375,-40.79249954223633
16.971512998421513,0.0861319974064827,-0.9242720007896424,-0.4045519828796386,-6.422500133514404,-71.94249725341797,-41.05500030517578
16.991597629188878,0.0678320005536079,-0.8232559561729431,-0.3459919989109039,-0.6299999952316284,-69.2300033569336,-39.35750198364258
17.011682259956242,0.0812520012259483,-0.799344003200531,-0.3508719801902771,-2.117500066757202,-67.7074966430664,-31.63999938964844
17.031766890723606,0.0827159956097602,-0.8574159741401672,-0.3728320002555847,-6.072500228881836,-64.88999938964844,-23.625
17.05185152149097,0.057583998888731,-0.907435953617096,-0.358924001455307,-4.952499866485596,-60.88249969482422,-18.690000534057617
17.071936152258335,0.0668559968471527,-0.8330159783363342,-0.2991439998149872,3.0274999141693115,-57.45249938964844,-14.822500228881836
17.0920207830257,0.085887998342514,-0.8176440000534058,-0.3128080070018768,-0.8400000333786011,-56.122501373291016,-7.909999847412109
17.112105413793063,0.1193159967660904,-0.9257360100746156,-0.334767997264862,2.012500047683716,-57.33000183105469,-4.619999885559082
17.132190044560428,0.1710439920425415,-0.9869799613952636,-0.2893840074539184,8.960000038146973,-50.66249847412109,-4.514999866485596
17.152274675327792,0.0946719944477081,-0.9364719986915588,-0.3206160068511963,16.502500534057617,-41.282501220703125,-4.760000228881836
17.172359306095156,0.0712479948997497,-1.0265079736709597,-0.3257399797439575,12.074999809265137,-42.4900016784668,-5.215000152587891
17.19244393686252,0.0910120010375976,-1.180959939956665,-0.2583959996700287,17.13249969482422,-43.872501373291016,-9.362500190734863
17.212528567629885,0.1168759986758232,-1.1587560176849363,-0.1205359995365142,31.815000534057617,-51.72999954223633,-19.565000534057617
17.23261319839725,0.0441639982163906,-1.042367935180664,-0.152988001704216,37.432498931884766,-53.74250030517578,-27.247499465942383
17.252697829164614,-0.0100039998069405,-0.8844999670982361,-0.3479439914226532,29.364999771118164,-56.4375,-24.79750061035156
17.272782459931978,-0.0797879993915557,-1.0701839923858645,-0.5636399984359741,-7.647500038146973,-51.5724983215332,-7.664999961853027
17.292867090699342,0.0436760000884532,-1.463024020195007,-0.6146360039710999,-38.290000915527344,-48.00249862670898,-3.569999933242798
17.312951721466707,0.1066280007362365,-1.5071879625320437,-0.7266319990158081,-21.6299991607666,-38.0625,-21.717500686645508
17.33303635223407,0.0944279953837394,-1.2980799674987793,-0.6285439729690552,6.492499828338623,-34.63249969482422,-38.81499862670898
17.353120983001435,-0.0004879999905824,-0.946720004081726,-0.476531982421875,29.90749931335449,-40.005001068115234,-40.459999084472656
17.3732056137688,-0.1695799976587295,-0.651479959487915,-0.4367599785327911,42.10499954223633,-49.8224983215332,-31.3075008392334
17.393290244536164,-0.2603479921817779,-0.4714079797267914,-0.3486759960651397,44.15250015258789,-63.525001525878906,-22.5575008392334
17.41337487530353,-0.2386319935321808,-0.3416000008583069,-0.269131988286972,40.79249954223633,-72.85250091552734,-21.857500076293945
17.433459506070893,-0.1373720020055771,-0.310368001461029,-0.2740119993686676,18.84749984741211,-72.87000274658203,-22.34749984741211
17.453544136838257,0.0290360003709793,-1.2236599922180176,-0.5877959728240967,-53.165000915527344,-46.11249923706055,-9.852499961853027
17.47362876760562,0.2127679884433746,-1.2417160272598269,-0.4548159837722778,-20.09000015258789,-41.42250061035156,-15.645000457763672
17.493713398372986,0.1334680020809173,-1.0565199851989746,-0.4155319929122925,12.390000343322754,-29.942501068115234,-13.352499961853027
17.51379802914035,0.0090279998257756,-0.9076799750328064,-0.3760039806365967,16.69499969482422,-28.15749931335449,-4.025000095367432
17.533882659907714,-0.0195199996232986,-0.9035319685935974,-0.346235990524292,7.244999885559082,-27.42250061035156,3.569999933242798
17.55396729067508,-0.0556319989264011,-0.8396039605140686,-0.268887996673584,-2.5199999809265137,-25.059999465942383,9.520000457763672
17.574051921442443,-0.0929640009999275,-0.8095920085906982,-0.2305800020694732,-11.322500228881836,-24.045000076293945,14.770000457763672
17.594136552209807,-0.1183400005102157,-0.7520079612731934,-0.201787993311882,-14.350000381469728,-24.920000076293945,21.6299991607666
17.61422118297717,-0.1544519960880279,-0.7693319916725159,-0.2386319935321808,-17.2549991607666,-27.15999984741211,27.545000076293945
17.634305813744536,-0.1383479982614517,-0.8381400108337402,-0.264739990234375,-16.082500457763672,-29.52250099182129,26.26749992370605
17.6543904445119,-0.06734399497509,-0.9049959778785706,-0.2869440019130707,-15.050000190734863,-28.612499237060547,19.70499992370605
17.674475075279265,-0.0017079999670386,-0.9159759879112244,-0.2515639960765838,-12.460000038146973,-25.74250030517578,8.102499961853027
17.69455970604663,-0.0014639999717473,-0.901091992855072,-0.1883679926395416,-11.042500495910645,-24.56999969482422,-5.144999980926514
17.714644336813993,-0.0463600009679794,-0.908411979675293,-0.1359079927206039,-11.00749969482422,-23.04750061035156,-18.32250022888184
17.734728967581358,-0.0270840004086494,-0.9115839600563048,-0.147376000881195,-7.122499942779541,-18.77750015258789,-29.977500915527344
17.754813598348722,0.0268399994820356,-0.90475195646286,-0.1905639916658401,-1.225000023841858,-13.282500267028809,-37.1875
17.774898229116086,0.0905239954590797,-0.895967960357666,-0.234484001994133,5.25,-7.262499809265137,-39.70750045776367
17.79498285988345,0.1268799901008606,-0.8901119828224182,-0.3172000050544739,6.772500038146973,-1.225000023841858,-35.192501068115234
17.815067490650815,0.1617719978094101,-0.9845399856567384,-0.3913759887218475,-0.8924999833106995,5.005000114440918,-27.229999542236328
17.83515212141818,0.0395279973745346,-1.077015995979309,-0.419435977935791,-3.5350000858306885,5.005000114440918,-24.587499618530277
17.855236752185544,-0.0114679997786879,-1.1577799320220947,-0.2425359934568405,-0.2275000065565109,-2.2225000858306885,-23.887500762939453
17.875321382952908,-0.0051239999011158,-1.2585519552230835,-0.0975999981164932,7.559999942779541,2.240000009536743,-14.175000190734863
17.895406013720272,0.0568519979715347,-1.2734359502792358,-0.1173639968037605,22.03249931335449,13.614999771118164,-2.7300000190734863
17.915490644487637,0.0824719965457916,-1.1448479890823364,-0.20032399892807,31.46500015258789,17.604999542236328,-2.9749999046325684
17.935575275255,-0.1468880027532577,-0.9840520024299622,-0.3628279864788055,33.35499954223633,15.295000076293944,-2.309999942779541
17.955659906022365,-0.3008520007133484,-1.276363968849182,-0.4838519990444183,-3.3949999809265137,12.967499732971191,18.67250061035156
17.97574453678973,-0.4330999851226806,-1.6238199472427368,-0.4870239794254303,-38.37749862670898,-12.460000038146973,39.77750015258789
17.995829167557094,-0.4543280005455017,-1.4776639938354492,-0.4394440054893493,-6.40500020980835,-28.80500030517578,29.68000030517578
18.01591379832446,-0.3123199939727783,-1.1392359733581543,-0.3860079944133758,22.5575008392334,-30.905000686645508,-6.090000152587891
18.035998429091823,-0.0978439971804618,-0.903775990009308,-0.3884479999542236,40.31999969482422,-28.420000076293945,-27.94750022888184
18.056083059859187,0.1903200000524521,-0.3296439945697784,-0.3281799852848053,49.087501525878906,10.255000114440918,-32.095001220703125
