Time (seconds),acc_x,acc_y,acc_z,gyro_x,gyro_y,gyro_z
0.02026059893168209,-0.119559995830059,-0.8925519585609436,0.1815359890460968,0.7175000309944153,-22.9950008392334,14.105000495910645
0.04052119786336418,-0.1656759977340698,-0.9603840112686156,0.1847079992294311,-11.672499656677246,-16.747499465942383,11.88249969482422
0.06078179679504627,-0.1915400028228759,-0.986735999584198,0.2730360031127929,-21.01749992370605,-15.225000381469728,12.31999969482422
0.08104239572672836,-0.1883679926395416,-1.079699993133545,0.2537599802017212,-24.604999542236328,-12.5649995803833,11.112500190734863
0.10130299465841044,-0.1942239999771118,-1.1504600048065186,0.2349720001220703,-10.202500343322754,-5.127500057220459,10.149999618530272
0.12156359359009253,-0.2149640023708343,-1.069208025932312,0.234727993607521,16.975000381469727,0.4200000166893005,12.442500114440918
0.1418241925217746,-0.2205759882926941,-0.990884006023407,0.1934919953346252,25.30500030517578,4.21750020980835,13.05500030517578
0.1620847914534567,-0.1910519897937774,-0.9672159552574158,0.1715319901704788,24.46500015258789,3.8324999809265137,12.337499618530272
0.18234539038513878,-0.1661639958620071,-0.8640039563179016,0.2137439996004104,28.104999542236328,5.005000114440918,8.942500114440918
0.20260598931682086,-0.2105719894170761,-0.848143994808197,0.2213079929351806,13.59749984741211,6.527500152587891,4.8125
0.22286658824850294,-0.1844639927148819,-0.9491599798202516,0.205935999751091,-6.230000019073486,13.387499809265137,4.09499979019165
0.24312718718018503,-0.2164279967546463,-0.8654679656028748,0.1381039917469024,4.777500152587891,39.462501525878906,8.154999732971191
0.26338778611186714,-0.1656759977340698,-0.9557479619979858,0.1261480003595352,-28.94499969482422,37.59000015258789,0.2450000047683715
0.2836483850435492,-0.1898320019245147,-0.969655990600586,0.1668960005044937,-23.20499992370605,32.70750045776367,0.7699999809265137
0.3039089839752313,-0.2408279925584793,-0.94159597158432,0.1300520002841949,-20.107500076293945,37.15250015258789,0.4200000166893005
0.3241695829069134,-0.2679120004177093,-0.8964560031890869,0.157379999756813,-7.507500171661377,47.337501525878906,1.4524999856948853
0.3444301818385955,-0.2156959921121597,-0.8649799823760986,0.2281399965286255,-3.6575000286102295,60.04249954223633,5.862500190734863
0.36469078077027756,-0.2283839881420135,-0.8837679624557495,0.1556719988584518,-23.8700008392334,47.23250198364258,8.032500267028809
0.38495137970195964,-0.3223240077495575,-0.895967960357666,0.195932000875473,-32.252498626708984,35.06999969482422,5.494999885559082
0.4052119786336417,-0.2803559899330139,-1.0194319486618042,-0.0170799996703863,-52.79750061035156,33.967498779296875,3.255000114440918
0.4254725775653238,-0.264739990234375,-1.1436280012130735,0.0195199996232986,-46.07749938964844,20.7549991607666,-0.0700000002980232
0.4457331764970059,-0.260591983795166,-1.1214239597320557,0.1932480037212371,-19.98500061035156,16.1875,-3.954999923706055
0.465993775428688,-0.2710839807987213,-1.1228879690170288,0.1886119991540908,-4.392499923706055,26.232500076293945,-2.362499952316284
0.48625437436037006,-0.2371679991483688,-1.039927959442139,0.2808440029621124,23.83500099182129,28.122499465942383,-1.8200000524520876
0.5065149732920522,-0.2283839881420135,-0.9418399930000304,0.3106119930744171,39.30500030517578,32.252498626708984,-4.269999980926514
0.5267755722237343,-0.185928001999855,-0.9750239849090576,0.2779159843921661,30.04750061035156,36.22499847412109,-11.899999618530272
0.5470361711554164,-0.0624639987945556,-1.0523719787597656,0.1661639958620071,30.309999465942383,57.942501068115234,-17.56999969482422
0.5672967700870984,-0.0592919997870922,-0.7939760088920593,0.062219999730587,65.66000366210938,78.55750274658203,-9.484999656677246
0.5875573690187805,-0.1273680031299591,-0.7585960030555725,0.1449359953403473,34.772499084472656,48.66749954223633,2.012500047683716
0.6078179679504626,-0.1422519981861114,-0.9232959747314452,0.0683199986815452,-7.945000171661377,16.55500030517578,-0.1749999970197677
0.6280785668821447,-0.2513200044631958,-0.8930400013923645,0.2191119939088821,-9.520000457763672,13.2475004196167,-2.0824999809265137
0.6483391658138268,-0.3889359831809997,-1.0169919729232788,0.280599981546402,-15.592499732971191,12.31999969482422,-11.4975004196167
0.6685997647455089,-0.3359879851341247,-1.0057679414749146,0.1459119915962219,-1.1549999713897705,0.1400000005960464,-30.502500534057617
0.688860363677191,-0.3520919978618622,-0.9264679551124572,-0.1017479971051216,1.4524999856948853,6.387499809265137,-36.33000183105469
0.709120962608873,-0.3960119783878326,-0.7515199780464172,-0.0039039999246597,-0.9975000023841858,5.197500228881836,-23.467500686645508
0.7293815615405551,-0.2749879956245422,-0.9152439832687378,-0.0780799984931945,-46.4275016784668,-7.595000267028809,-9.975000381469728
0.7496421604722372,-0.2522960007190704,-1.1358200311660769,0.1644559949636459,-42.192501068115234,-7.542500019073486,-4.09499979019165
0.7699027594039193,-0.2413159906864166,-1.048467993736267,0.3530679941177368,1.6449999809265137,7.175000190734863,-6.860000133514404
0.7901633583356014,-0.138835996389389,-1.0604239702224731,0.1295640021562576,-16.957500457763672,13.300000190734863,-13.96500015258789
0.8104239572672834,-0.128831997513771,-1.0255320072174072,0.0548999980092048,-4.112500190734863,1.0149999856948853,-10.97249984741211
0.8306845561989655,-0.1298079937696457,-0.9428159594535828,0.1278560012578964,13.440000534057615,-10.744999885559082,-5.494999885559082
0.8509451551306476,-0.0797879993915557,-0.9799039959907532,0.1156559959053993,2.2225000858306885,-9.414999961853027,-3.4825000762939453
0.8712057540623297,-0.1117519959807396,-0.9974719882011414,0.1761679947376251,13.142499923706056,7.034999847412109,-5.582499980926514
0.8914663529940118,-0.1110199987888336,-0.9921039938926696,0.1481079906225204,8.102499961853027,-0.2275000065565109,-5.355000019073486
0.9117269519256939,-0.0963799953460693,-0.9769759774208068,0.085156001150608,5.267499923706055,3.009999990463257,-0.8575000166893005
0.931987550857376,-0.0971119999885559,-0.9062159657478333,0.1464000046253204,22.924999237060547,15.050000190734863,7.402500152587891
0.952248149789058,-0.1263919919729232,-0.8549759984016418,0.2078879922628402,19.040000915527344,12.827500343322754,16.274999618530273
0.9725087487207401,-0.1005280017852783,-0.9508680105209352,0.1998360008001327,-9.0649995803833,-1.0850000381469729,28.45499992370605
0.9927693476524222,-0.1110199987888336,-0.9879559874534608,0.1090679988265037,-14.84000015258789,1.5399999618530271,24.815000534057617
1.0130299465841044,-0.2371679991483688,-1.015771985054016,0.0509959980845451,-5.40749979019165,22.434999465942383,21.752500534057617
1.0332905455157866,-0.2869440019130707,-1.0086959600448608,0.0605119988322258,10.237500190734863,25.252500534057617,12.635000228881836
1.0535511444474688,-0.2432679980993271,-0.9691680073738098,0.1066280007362365,11.392499923706056,36.907501220703125,22.049999237060547
1.073811743379151,-0.1554279923439026,-0.9818559885025024,0.0988200008869171,12.6875,19.967500686645508,7.962500095367432
1.0940723423108332,-0.3184199929237366,-1.001376032829285,0.1715319901704788,18.6200008392334,34.26499938964844,0.0350000001490116
1.1143329412425154,-0.206179991364479,-1.0001559257507324,0.1161440014839172,7.507500171661377,15.697500228881836,-10.8149995803833
1.1345935401741976,-0.2557120025157928,-0.9437919855117798,0.1198039948940277,12.005000114440918,35.70000076293945,-6.877500057220459
1.1548541391058798,-0.1998360008001327,-0.9640439748764038,0.1276119947433471,4.112500190734863,35.560001373291016,-6.632500171661377
1.175114738037562,-0.1927599906921386,-1.0035719871520996,0.1395680010318756,-2.047499895095825,32.4275016784668,-0.4724999964237213
1.1953753369692441,-0.2308239936828613,-0.9957639575004578,0.1163880005478859,-3.3600001335144043,24.045000076293945,2.8350000381469727
1.2156359359009263,-0.2164279967546463,-0.9567239880561828,0.085156001150608,-0.5950000286102295,13.230000495910645,-0.3675000071525574
1.2358965348326085,-0.1783639937639236,-0.9308599829673768,0.1376159936189651,9.484999656677246,6.002500057220459,-3.115000009536743
1.2561571337642907,-0.1788519918918609,-0.9250040054321288,0.1703120023012161,11.34000015258789,-4.445000171661377,-8.119999885559082
1.276417732695973,-0.1881240010261535,-0.9308599829673768,0.140299990773201,9.817500114440918,-4.287499904632568,-10.5
1.2966783316276551,-0.195932000875473,-0.9552599787712096,0.1876360028982162,11.84749984741211,-8.3125,-10.710000038146973
1.3169389305593373,-0.1776320040225982,-0.9989359974861144,0.1483519971370697,1.7324999570846558,-11.40999984741211,-9.397500038146973
1.3371995294910195,-0.1890999972820282,-0.9547719955444336,0.1566479951143264,8.977499961853027,-0.8050000071525574,-11.34000015258789
1.3574601284227017,-0.2252119928598404,-1.046515941619873,0.1668960005044937,10.255000114440918,12.337499618530272,-12.5649995803833
1.377720727354384,-0.1820240020751953,-1.0111359357833862,0.1905639916658401,11.654999732971191,9.55500030517578,-12.3725004196167
1.397981326286066,-0.1932480037212371,-0.9496479630470276,0.1503039896488189,0.5950000286102295,3.9375,-4.164999961853027
1.4182419252177483,-0.2220399975776672,-0.9698999524116516,0.1586000025272369,5.302500247955322,4.199999809265137,-3.307500123977661
1.4385025241494305,-0.1964199990034103,-0.9537959694862366,0.1886119991540908,7.227499961853027,4.760000228881836,-3.7799999713897705
1.4587631230811127,-0.196175992488861,-0.969655990600586,0.183243989944458,3.954999923706055,4.567500114440918,-3.202500104904175
1.4790237220127949,-0.1783639937639236,-0.9791719913482666,0.1822679936885833,1.8550000190734863,4.025000095367432,-3.132499933242798
1.499284320944477,-0.1737279891967773,-0.9652639627456664,0.1890999972820282,3.3949999809265137,2.747499942779541,-3.7799999713897705
1.5195449198761593,-0.1659199893474578,-0.9650200009346008,0.201787993311882,3.289999961853028,1.680000066757202,-3.640000104904175
1.5398055188078414,-0.1568920016288757,-0.9545279741287231,0.195932000875473,2.134999990463257,2.362499952316284,-3.4649999141693115
1.5600661177395236,-0.1568920016288757,-0.9650200009346008,0.1829999983310699,1.6100000143051147,2.799999952316284,-3.622499942779541
1.5803267166712058,-0.1551840007305145,-0.9552599787712096,0.1861719936132431,4.077499866485596,0.5600000023841858,-4.007500171661377
1.600587315602888,-0.1734839975833892,-0.96453195810318,0.1751919984817505,2.012500047683716,-4.567500114440918,-4.462500095367432
1.6208479145345702,-0.1381039917469024,-1.0128439664840698,0.1522559970617294,1.1024999618530271,-20.299999237060547,0.3149999976158142
1.6411085134662524,-0.1629920005798339,-0.9235399961471558,0.23887600004673,21.979999542236328,6.929999828338623,-3.622499942779541
1.6613691123979346,-0.1808039993047714,-0.9508680105209352,0.2039839923381805,6.28249979019165,9.975000381469728,-1.2949999570846558
1.6816297113296168,-0.1908079981803894,-1.011379957199097,0.1266359984874725,3.552500009536743,-12.739999771118164,1.5924999713897705
1.701890310261299,-0.175924003124237,-0.9601399898529052,0.2317999899387359,26.670000076293945,-8.662500381469727,1.627500057220459
1.7221509091929812,-0.1866599917411804,-0.8837679624557495,0.2508319914340973,22.977500915527344,0.1050000041723251,0.699999988079071
1.7424115081246634,-0.2020319998264312,-0.9772199988365172,0.1464000046253204,3.4124999046325684,-15.38249969482422,2.5199999809265137
1.7626721070563456,-0.1561599969863891,-1.0513960123062134,0.1991039961576461,21.4375,-27.684999465942383,1.190000057220459
1.7829327059880278,-0.1678719967603683,-0.9179279804229736,0.3518480062484741,43.2599983215332,-4.900000095367432,0.2450000047683715
1.80319330491971,-0.1708000004291534,-0.9735599756240844,0.2703520059585571,-2.572499990463257,3.587500095367432,-5.757500171661377
1.8234539038513922,-0.143227994441986,-0.9947879910469056,0.17323999106884,-4.235000133514404,7.525000095367432,-31.989999771118164
1.8437145027830744,-0.1202920004725456,-0.9086560010910034,0.2827959954738617,22.487499237060547,17.325000762939453,-36.540000915527344
1.8639751017147566,-0.1324919909238815,-0.9652639627456664,0.2225279957056045,10.43000030517578,2.6600000858306885,-10.010000228881836
1.8842357006464387,-0.1366399973630905,-0.945743978023529,0.2881639897823334,11.6899995803833,3.552500009536743,-3.762500047683716
1.904496299578121,-0.1483519971370697,-0.9584319591522216,0.249123990535736,3.307500123977661,6.195000171661377,-2.870000123977661
1.9247568985098031,-0.1420079916715622,-0.944767951965332,0.2522960007190704,1.9600000381469729,6.159999847412109,-2.8350000381469727
1.9450174974414853,-0.1466439962387085,-0.9740479588508606,0.2276519984006881,-0.9100000262260436,5.652500152587891,-3.237499952316284
1.9652780963731675,-0.148839995265007,-0.9730719923973083,0.2918239831924438,6.492499828338623,6.037499904632568,-5.110000133514404
1.9855386953048497,-0.1478639990091323,-0.9542839527130128,0.2825520038604736,3.255000114440918,11.88249969482422,-4.567500114440918
2.0057992942365317,-0.1500599980354309,-0.9681919813156128,0.2989000082015991,1.6100000143051147,17.53499984741211,-13.369999885559082
2.0260598931682137,-0.1568920016288757,-0.9123159646987916,0.2142319977283477,-21.489999771118164,18.44499969482422,4.585000038146973
2.0463204920998956,-0.1798280030488968,-1.0047919750213623,0.2632759809494018,-30.239999771118164,19.18000030517578,15.557499885559082
2.0665810910315776,-0.124439999461174,-0.9576999545097352,0.1637239903211593,-17.517499923706055,10.710000038146973,1.6974999904632568
2.0868416899632596,-0.1500599980354309,-0.9889319539070128,0.1776320040225982,-1.6449999809265137,3.587500095367432,-2.257499933242798
2.1071022888949416,-0.1537199914455413,-0.9503799676895142,0.2217959910631179,9.765000343322754,-0.1574999988079071,-3.3600001335144043
2.1273628878266235,-0.1320039927959442,-0.9679479598999025,0.2369239926338195,8.78499984741211,-2.1700000762939453,-4.077499866485596
2.1476234867583055,-0.1273680031299591,-0.9579439759254456,0.2064239978790283,7.385000228881836,-2.677500009536743,-2.799999952316284
2.1678840856899875,-0.1459119915962219,-0.9193919897079468,0.2264319956302642,18.707500457763672,6.177500247955322,-5.039999961853027
2.1881446846216694,-0.1278560012578964,-0.9096319675445556,0.2540040016174316,18.864999771118164,15.592499732971191,-6.807499885559082
2.2084052835533514,-0.1834879964590072,-1.0321199893951416,0.2776719927787781,15.767499923706056,27.09000015258789,-0.9975000023841858
2.2286658824850334,-0.1337119936943054,-1.0252879858016968,0.2825520038604736,28.21000099182129,25.14750099182129,3.5
2.2489264814167154,-0.1620160043239593,-0.9789279699325562,0.2644959986209869,35.157501220703125,39.91749954223633,7.752500057220459
2.2691870803483973,-0.177387997508049,-0.9603840112686156,0.2557120025157928,35.06999969482422,38.90250015258789,4.53249979019165
2.2894476792800793,-0.1446920037269592,-0.9723399877548218,0.2056919932365417,42.73500061035156,24.622499465942383,7.0
2.3097082782117613,-0.1795839965343475,-0.9250040054321288,0.4779959917068481,41.9474983215332,15.977499961853027,19.18000030517578
2.3299688771434433,-0.2884079813957214,-0.9725840091705322,0.240339994430542,-19.950000762939453,5.337500095367432,39.497501373291016
2.3502294760751252,-0.177387997508049,-0.900115966796875,0.2959719896316528,23.59000015258789,3.0799999237060547,-11.550000190734863
2.370490075006807,-0.1520119905471801,-0.9225639700889589,0.2779159843921661,30.99250030517578,-12.28499984741211,-24.21999931335449
2.390750673938489,-0.1642120033502578,-0.9220759868621826,0.2845039963722229,14.36750030517578,-3.552500009536743,-29.399999618530277
2.411011272870171,-0.142984002828598,-0.8801079988479614,0.3286679983139038,-3.867500066757202,-1.277500033378601,-37.02999877929688
2.431271871801853,-0.1422519981861114,-0.8705919981002808,0.2923119962215423,-20.7549991607666,0.962499976158142,-34.49250030517578
2.451532470733535,-0.1361519992351532,-0.969655990600586,0.3120760023593902,-25.76000022888184,10.587499618530272,-53.00749969482422
2.471793069665217,-0.0722239986062049,-1.063107967376709,0.2618120014667511,-5.127500057220459,2.117500066757202,-64.8550033569336
2.492053668596899,-0.0705159977078437,-0.9938119649887084,0.2998760044574737,26.354999542236328,-3.009999990463257,-53.39250183105469
2.512314267528581,-0.0683199986815452,-0.958187997341156,0.3264719843864441,21.57749938964844,-3.674999952316284,-46.130001068115234
2.532574866460263,-0.0634399950504303,-0.8937720060348511,0.3152479827404022,14.699999809265137,-11.480000495910645,-34.70249938964844
2.552835465391945,-0.0544119998812675,-0.9435479640960692,0.2959719896316528,4.934999942779541,-14.577500343322754,-8.295000076293945
2.573096064323627,-0.056607998907566,-0.9913719892501832,0.2415599972009658,10.342499732971191,-9.239999771118164,-11.970000267028809
2.593356663255309,-0.114436000585556,-0.9862479567527772,0.2588839828968048,17.587499618530273,5.355000019073486,-39.91749954223633
2.613617262186991,0.0832040011882782,-0.8844999670982361,0.370635986328125,17.360000610351562,12.442500114440918,-94.43000030517578
2.633877861118673,-0.0161039996892213,-0.9284200072288512,0.3352559804916382,1.5575000047683716,-8.452500343322754,-52.08000183105469
2.654138460050355,0.0773480013012886,-0.9176839590072632,0.3645359873771667,-5.25,-2.1524999141693115,-32.04249954223633
2.674399058982037,-0.0212280005216598,-0.9003599882125854,0.3352559804916382,-7.875,-6.247499942779541,-1.3650000095367432
2.6946596579137188,0.0109799997881054,-0.9637999534606934,0.2827959954738617,10.359999656677246,9.029999732971191,1.0674999952316284
2.7149202568454007,0.0256199985742568,-0.9662399888038636,0.3847880065441131,30.309999465942383,14.36750030517578,-10.447500228881836
2.7351808557770827,0.0595359988510608,-0.9464759826660156,0.3652679920196533,21.665000915527344,9.1875,-13.107500076293944
2.7554414547087647,0.0400159992277622,-0.9237839579582214,0.3686839938163757,12.162500381469728,16.012500762939453,-13.369999885559082
2.7757020536404466,0.0588039979338645,-0.9137799739837646,0.3540439903736114,1.995000004768372,7.980000019073486,-11.952500343322754
2.7959626525721286,0.0353799983859062,-0.9230519533157348,0.3525799810886383,-9.642499923706056,9.869999885559082,-8.015000343322754
2.8162232515038106,0.0358680002391338,-0.896943986415863,0.3672199845314026,-23.887500762939453,-0.7175000309944153,-5.197500228881836
2.8364838504354926,0.0156159996986389,-0.8871839642524719,0.3391599953174591,-36.85499954223633,-17.587499618530273,10.3774995803833
2.8567444493671745,0.0651479959487915,-0.8752279877662659,0.3408679962158203,-18.637500762939453,-33.75749969482422,46.584999084472656
2.8770050482988565,0.0422119982540607,-0.8361879587173462,0.3594119846820831,-14.682499885559082,3.692500114440918,107.7125015258789
2.8972656472305385,0.0078079998493194,-0.945743978023529,0.3259840011596679,-14.717499732971191,17.010000228881836,179.3574981689453
2.9175262461622204,-0.3740519881248474,-0.9964959621429444,0.3081719875335693,-16.170000076293945,-3.150000095367432,211.2949981689453
2.9377868450939024,-0.4738479852676391,-1.0450519323349,0.2762079834938049,-24.552499771118164,-12.005000114440918,71.92500305175781
2.9580474440255844,-0.2713280022144317,-0.8679080009460449,0.3418439924716949,11.707500457763672,1.1725000143051147,1.4874999523162842
2.9783080429572664,-0.2098399996757507,-0.9147560000419616,0.269131988286972,-10.079999923706056,-11.515000343322754,4.357500076293945
2.9985686418889483,-0.1851959973573684,-0.9633119702339172,0.2876760065555572,-1.1024999618530271,-14.420000076293944,4.252500057220459
3.0188292408206303,-0.1661639958620071,-0.9547719955444336,0.4145559966564178,4.96999979019165,-8.574999809265137,0.5249999761581421
3.0390898397523123,-0.1415199935436248,-0.9691680073738098,0.2893840074539184,-12.8100004196167,-8.71500015258789,-5.110000133514404
3.0593504386839943,-0.1471319943666458,-0.9135359525680542,0.2947520017623901,-2.275000095367432,-2.2225000858306885,-1.0850000381469729
3.0796110376156762,-0.1224879994988441,-0.9491599798202516,0.2581520080566406,-6.300000190734863,-9.922499656677246,3.3424999713897705
3.099871636547358,-0.1049199998378753,-0.9589200019836426,0.3091479837894439,-4.112500190734863,-13.282500267028809,3.849999904632568
3.12013223547904,-0.1061399951577186,-0.949891984462738,0.3125639855861664,-2.5374999046325684,-8.890000343322754,2.9049999713897705
3.140392834410722,-0.1278560012578964,-0.9462319612503052,0.3054879903793335,-2.765000104904175,-4.21750020980835,1.837499976158142
3.160653433342404,-0.1412760019302368,-0.9430599808692932,0.3125639855861664,-3.0625,-1.0499999523162842,1.3300000429153442
3.180914032274086,-0.1507920026779174,-0.9550159573554992,0.3071959912776947,-5.897500038146973,3.849999904632568,0.5774999856948853
3.201174631205768,-0.1642120033502578,-0.9472079873085022,0.3023159801959991,-4.445000171661377,10.727499961853027,-0.4900000095367431
3.22143523013745,-0.2000799924135208,-0.920367956161499,0.2622999846935272,-5.792500019073486,8.27750015258789,0.4025000035762787
3.241695829069132,-0.1649439930915832,-0.9528200030326844,0.2986559867858886,-6.159999847412109,-2.5899999141693115,8.154999732971191
3.261956428000814,-0.1881240010261535,-0.9398880004882812,0.2671799957752228,-4.742499828338623,0.7524999976158142,1.6100000143051147
3.282217026932496,-0.185928001999855,-0.9374479651451112,0.2830399870872497,2.5374999046325684,6.037499904632568,0.1400000005960464
3.302477625864178,-0.1900759935379028,-0.9403759837150574,0.2830399870872497,-0.7524999976158142,4.672500133514404,-0.4200000166893005
3.32273822479586,-0.1827559918165207,-0.9462319612503052,0.2857239842414856,1.4874999523162842,2.870000123977661,-0.5249999761581421
3.342998823727542,-0.1776320040225982,-0.9362279772758484,0.2920680046081543,3.587500095367432,3.0450000762939453,-0.5425000190734863
3.363259422659224,-0.1734839975833892,-0.9684360027313232,0.2449759989976883,5.914999961853027,-0.2975000143051147,-0.1400000005960464
3.383520021590906,-0.1656759977340698,-0.9259799718856812,0.3459919989109039,25.042499542236328,-4.357500076293945,0.1225000023841857
3.403780620522588,-0.1627479940652847,-0.9306159615516664,0.2996319830417633,5.617499828338623,-0.9100000262260436,-1.0850000381469729
3.4240412194542698,-0.1720200031995773,-0.9284200072288512,0.2996319830417633,-2.3975000381469727,2.799999952316284,-0.9100000262260436
3.4443018183859517,-0.1634799987077713,-0.9413520097732544,0.2830399870872497,-6.877500057220459,1.190000057220459,-0.8050000071525574
3.4645624173176337,-0.183243989944458,-1.03602397441864,0.2740119993686676,0.0700000002980232,7.699999809265137,-3.797500133514404
3.4848230162493157,-0.2166720032691955,-0.9711199998855592,0.301827996969223,4.235000133514404,24.97249984741211,-25.917499542236328
3.5050836151809976,-0.0985759943723678,-0.8410679697990417,0.3081719875335693,-8.837499618530273,-1.4524999856948853,-67.19999694824219
3.5253442141126796,-0.1183400005102157,-0.9250040054321288,0.2801119983196258,-8.3125,-6.667500019073486,-52.1150016784668
3.5456048130443616,-0.1024799942970275,-0.9279319643974304,0.2866999804973602,-5.512499809265137,4.025000095367432,-37.88750076293945
3.5658654119760436,-0.10589599609375,-0.9347639679908752,0.3035359978675842,-13.912500381469728,10.447500228881836,-23.92250061035156
3.5861260109077255,-0.1183400005102157,-0.9662399888038636,0.2759639918804168,-25.934999465942383,15.907500267028809,-15.592499732971191
3.6063866098394075,-0.0946719944477081,-0.9884439706802368,0.3052439987659454,-33.932498931884766,16.99250030517578,-10.46500015258789
3.6266472087710895,-0.0949160009622573,-1.013819932937622,0.2222839891910553,-32.7599983215332,3.132499933242798,3.884999990463257
3.6469078077027715,-0.0949160009622573,-1.0106480121612549,0.2232600003480911,8.085000038146973,-0.1400000005960464,17.010000228881836
3.6671684066344534,-0.1271239966154098,-0.9162200093269348,0.2579079866409302,6.720000267028809,6.860000133514404,6.597499847412109
3.6874290055661354,-0.1229759976267814,-0.952575981616974,0.2483920007944107,-3.8324999809265137,5.635000228881836,-0.9449999928474426
3.7076896044978174,-0.1105320006608963,-0.9562360048294068,0.2178919911384582,-4.497499942779541,5.110000133514404,-1.6974999904632568
3.7279502034294993,-0.1280999928712844,-0.9786840081214904,0.2283839881420135,4.585000038146973,6.177500247955322,-2.414999961853028
3.7482108023611813,-0.1237079948186874,-0.9799039959907532,0.2300919890403747,14.175000190734863,3.150000095367432,-1.2949999570846558
3.7684714012928633,-0.1378600001335144,-0.9679479598999025,0.260591983795166,24.7450008392334,1.5225000381469729,-3.4124999046325684
3.7887320002245453,-0.099551998078823,-0.9320799708366394,0.3096359968185425,24.184999465942383,3.762500047683716,-8.4350004196167
3.8089925991562272,-0.1068719998002052,-0.9679479598999025,0.2622999846935272,15.557499885559082,11.00749969482422,-15.3125
3.829253198087909,-0.0919879972934722,-0.96453195810318,0.2701079845428467,16.537500381469727,10.114999771118164,-17.517499923706055
3.849513797019591,-0.1032119989395141,-0.9437919855117798,0.2837719917297363,17.412500381469727,11.112500190734863,-31.44750022888184
3.869774395951273,-0.0807639956474304,-0.9694119691848756,0.2522960007190704,15.522500038146973,9.520000457763672,-39.51499938964844
3.890034994882955,-0.0670999959111213,-0.9523319602012634,0.3357439935207367,22.0674991607666,1.8899999856948853,-50.41749954223633
3.910295593814637,-0.0583159998059272,-0.9547719955444336,0.3445279896259308,3.255000114440918,9.1875,-21.559999465942383
3.930556192746319,-0.0444080010056495,-0.97599995136261,0.3203719854354858,-0.8400000333786011,3.622499942779541,-5.84499979019165
3.950816791678001,-0.0317199975252151,-0.9740479588508606,0.2906039953231811,0.8224999904632568,6.545000076293945,-2.345000028610229
3.971077390609683,-0.0161039996892213,-0.9591639637947084,0.2915799915790558,5.110000133514404,12.057499885559082,-4.182499885559082
3.991337989541365,-0.0578279979526996,-0.9423279762268066,0.3086600005626678,8.680000305175781,16.467500686645508,-10.447500228881836
4.011598588473047,-0.0161039996892213,-0.9523319602012634,0.3381839990615845,5.179999828338623,10.90250015258789,-10.90250015258789
4.03185918740473,-0.0732000023126602,-0.9445239901542664,0.2727919816970825,4.690000057220459,24.27250099182129,-1.924999952316284
4.052119786336412,-0.023667998611927,-0.9555040001869202,0.3064639866352081,1.0499999523162842,6.579999923706055,-2.0824999809265137
4.072380385268095,-0.0497759990394115,-0.938423991203308,0.3091479837894439,-0.7350000143051147,7.262499809265137,-3.990000009536743
4.092640984199777,-0.0397720001637935,-0.9472079873085022,0.3020719885826111,-6.002500057220459,4.65500020980835,-0.6650000214576721
4.1129015831314595,-0.032940000295639,-0.9569680094718932,0.3045119941234588,-6.212500095367432,1.837499976158142,0.0175000000745058
4.133162182063142,-0.0304999984800815,-0.9657520055770874,0.3013399839401245,-5.057499885559082,0.4724999964237213,0.7699999809265137
4.153422780994824,-0.0292799994349479,-0.973315954208374,0.3023159801959991,-2.1700000762939453,0.8224999904632568,0.9100000262260436
4.173683379926507,-0.0300120003521442,-0.975268006324768,0.3015840053558349,2.414999961853028,0.4900000095367431,0.5774999856948853
4.193943978858189,-0.0356239974498748,-0.9545279741287231,0.3096359968185425,6.440000057220459,0.699999988079071,0.2450000047683715
4.214204577789872,-0.0402599982917308,-0.941107988357544,0.310368001461029,4.829999923706055,0.5249999761581421,1.1549999713897705
4.234465176721554,-0.0407480001449584,-0.9484279751777648,0.3098799884319305,0.5600000023841858,0.699999988079071,1.7675000429153442
4.254725775653236,-0.047335997223854,-0.9523319602012634,0.3020719885826111,-2.6600000858306885,-0.0350000001490116,2.712500095367432
4.274986374584919,-0.0470919981598854,-0.9542839527130128,0.3052439987659454,-3.640000104904175,-2.134999990463257,4.059999942779541
4.295246973516601,-0.0509959980845451,-0.9659959673881532,0.3084160089492798,-2.992500066757202,-2.1524999141693115,5.460000038146973
4.315507572448284,-0.0602679997682571,-0.958187997341156,0.313539981842041,-4.340000152587891,-2.502500057220459,3.815000057220459
4.335768171379966,-0.0387960001826286,-0.9479399919509888,0.2952399849891662,-8.032500267028809,-5.40749979019165,2.0999999046325684
4.3560287703116485,-0.0380639992654323,-0.9576999545097352,0.2996319830417633,-2.257499933242798,-4.182499885559082,2.362499952316284
4.376289369243331,-0.0427000001072883,-0.9513559937477112,0.3064639866352081,1.1549999713897705,-2.2925000190734863,2.117500066757202
4.396549968175013,-0.0402599982917308,-0.9579439759254456,0.2879199981689453,-0.4200000166893005,-0.962499976158142,0.9275000095367432
4.416810567106696,-0.0500199981033802,-0.9601399898529052,0.3015840053558349,1.7324999570846558,1.8725000619888303,0.3149999976158142
4.437071166038378,-0.0422119982540607,-0.96697199344635,0.2928000092506408,3.0450000762939453,2.0299999713897705,-0.0175000000745058
4.457331764970061,-0.0480679981410503,-0.9647759795188904,0.3108559846878052,8.067500114440918,3.552500009536743,-0.0175000000745058
4.477592363901743,-0.0507519990205764,-0.9459879994392396,0.301827996969223,7.315000057220459,1.9774999618530276,0.5600000023841858
4.497852962833425,-0.0483120009303092,-0.94159597158432,0.2954840064048767,4.567500114440918,1.924999952316284,1.5750000476837158
4.518113561765108,-0.0527039989829063,-0.9496479630470276,0.3001199960708618,-0.2975000143051147,2.940000057220459,2.992500066757202
4.53837416069679,-0.0585599988698959,-0.9569680094718932,0.2979239821434021,-2.2925000190734863,2.5199999809265137,1.0325000286102295
4.558634759628473,-0.0497759990394115,-0.9552599787712096,0.3074399828910827,-1.8899999856948853,0.1050000041723251,-0.962499976158142
4.578895358560155,-0.0500199981033802,-0.9508680105209352,0.3028039932250976,-1.4350000619888306,0.5074999928474426,-0.8400000333786011
4.5991559574918375,-0.0495319999754428,-0.9515999555587769,0.301827996969223,-0.262499988079071,0.7524999976158142,-0.4200000166893005
4.61941655642352,-0.0527039989829063,-0.949891984462738,0.2969479858875274,-0.5425000190734863,1.0325000286102295,0.962499976158142
4.639677155355202,-0.05197199806571,-0.9523319602012634,0.2981680035591125,-2.6600000858306885,0.962499976158142,0.9800000190734864
4.659937754286885,-0.0478239990770816,-0.9562360048294068,0.3008520007133484,-4.602499961853027,1.3125,-0.2975000143051147
4.680198353218567,-0.046604000031948,-0.9576999545097352,0.3015840053558349,-3.430000066757202,2.309999942779541,-0.5425000190734863
4.70045895215025,-0.0456280000507831,-0.9535520076751708,0.3008520007133484,-1.9600000381469729,2.940000057220459,-1.1024999618530271
4.720719551081932,-0.0507519990205764,-0.9484279751777648,0.2996319830417633,-2.432500123977661,3.009999990463257,-1.5575000047683716
4.740980150013614,-0.0551439970731735,-0.9535520076751708,0.2991439998149872,-3.569999933242798,3.009999990463257,-2.0299999713897705
4.761240748945297,-0.0595359988510608,-0.9518439769744872,0.3001199960708618,-5.284999847412109,2.870000123977661,-1.5924999713897705
4.781501347876979,-0.0588039979338645,-0.952575981616974,0.2945079803466797,-7.139999866485596,2.047499895095825,-1.190000057220459
4.801761946808662,-0.05197199806571,-0.9469639658927916,0.2898719906806946,-6.335000038146973,1.2949999570846558,-0.8224999904632568
4.822022545740344,-0.0502640008926391,-0.9557479619979858,0.2898719906806946,-5.897500038146973,0.1749999970197677,-0.6650000214576721
4.8422831446720265,-0.0485559999942779,-0.9611159563064576,0.2913359999656677,-7.105000019073486,-0.4550000131130218,-0.5425000190734863
4.862543743603709,-0.0500199981033802,-0.9569680094718932,0.2871879935264587,-8.225000381469727,-0.332500010728836,0.0350000001490116
4.882804342535391,-0.0497759990394115,-0.9633119702339172,0.2901159822940826,-8.34749984741211,-1.4350000619888306,0.699999988079071
4.903064941467074,-0.0514839999377727,-0.9579439759254456,0.2918239831924438,-8.225000381469727,-2.012500047683716,1.9075000286102293
4.923325540398756,-0.0480679981410503,-0.9601399898529052,0.2796239852905273,-9.3100004196167,-2.5374999046325684,2.572499990463257
4.9435861393304386,-0.0451399981975555,-0.9674599766731262,0.2803559899330139,-6.072500228881836,-1.1200000047683716,1.924999952316284
4.963846738262121,-0.0461159981787204,-0.958187997341156,0.2937760055065155,-1.7324999570846558,0.0350000001490116,1.4350000619888306
4.984107337193803,-0.05197199806571,-0.961359977722168,0.2937760055065155,-1.399999976158142,-0.1749999970197677,1.399999976158142
5.004367936125486,-0.0539239980280399,-0.9642879962921144,0.2884079813957214,-1.2424999475479126,-0.5600000023841858,1.5399999618530271
5.024628535057168,-0.0500199981033802,-0.9596520066261292,0.2862119972705841,-0.3675000071525574,-0.1574999988079071,1.8550000190734863
5.044889133988851,-0.0490439981222152,-0.9474520087242126,0.285968005657196,-0.3499999940395355,0.262499988079071,1.784999966621399
5.065149732920533,-0.0534359999001026,-0.9511119723320008,0.2937760055065155,-0.9449999928474426,0.0525000020861625,1.3650000095367432
5.0854103318522155,-0.052947998046875,-0.9640439748764038,0.2908479869365692,-3.009999990463257,-0.9275000095367432,0.8924999833106995
5.105670930783898,-0.0492879971861839,-0.9562360048294068,0.2952399849891662,-2.799999952316284,-1.7675000429153442,0.0175000000745058
5.12593152971558,-0.0405040010809898,-0.9596520066261292,0.2798680067062378,-6.090000152587891,-3.289999961853028,-0.8575000166893005
5.146192128647263,-0.0395279973745346,-0.9659959673881532,0.2771840095520019,-3.9375,-2.2225000858306885,-1.4874999523162842
5.166452727578945,-0.0395279973745346,-0.9708759784698486,0.2823079824447632,-2.6424999237060547,-1.1375000476837158,-1.2424999475479126
5.1867133265106276,-0.0378200002014637,-0.977463960647583,0.2715719938278198,-4.059999942779541,-0.2975000143051147,-0.4025000035762787
5.20697392544231,-0.0424560010433197,-0.9764879941940308,0.2618120014667511,-1.5225000381469729,2.345000028610229,0.1749999970197677
5.227234524373992,-0.0451399981975555,-0.9708759784698486,0.2540040016174316,0.9975000023841858,4.690000057220459,0.4724999964237213
5.247495123305675,-0.0453839972615242,-0.9747799634933472,0.2498559951782226,2.555000066757202,5.775000095367432,0.6650000214576721
5.267755722237357,-0.0456280000507831,-0.977463960647583,0.2522960007190704,4.392499923706055,6.072500228881836,0.7699999809265137
5.28801632116904,-0.0514839999377727,-0.9708759784698486,0.2542479932308197,4.427500247955322,6.422500133514404,0.7350000143051147
5.308276920100722,-0.0546559989452362,-0.9772199988365172,0.2439999878406524,2.117500066757202,5.565000057220459,0.5074999928474426
5.3285375190324045,-0.0546559989452362,-0.9735599756240844,0.249123990535736,3.237499952316284,4.917500019073486,0.1400000005960464
5.348798117964087,-0.0514839999377727,-0.969655990600586,0.244731992483139,3.3949999809265137,4.96999979019165,-1.1024999618530271
5.369058716895769,-0.0534359999001026,-0.958675980567932,0.2500999867916107,2.9049999713897705,5.057499885559082,-0.2450000047683715
5.389319315827452,-0.0551439970731735,-0.9594079852104188,0.2398519963026046,-0.0874999985098838,3.972500085830689,-0.262499988079071
5.409579914759134,-0.0534359999001026,-0.961359977722168,0.2400960028171539,-1.190000057220459,3.797500133514404,-0.7350000143051147
5.4298405136908166,-0.0568519979715347,-0.9674599766731262,0.2420479953289032,-0.6825000047683716,3.954999923706055,-0.1050000041723251
5.450101112622499,-0.0580720007419586,-0.9794159531593324,0.2537599802017212,1.4350000619888306,4.602499961853027,-0.5425000190734863
5.470361711554181,-0.0558759979903698,-0.9750239849090576,0.2625440061092376,3.115000009536743,5.022500038146973,-0.5774999856948853
5.490622310485864,-0.0544119998812675,-0.9730719923973083,0.2635200023651123,5.144999980926514,3.920000076293945,-1.0850000381469729
5.510882909417546,-0.0558759979903698,-0.9598959684371948,0.2640079855918884,1.1725000143051147,5.215000152587891,-0.6650000214576721
5.531143508349229,-0.0561200007796287,-0.9513559937477112,0.2949959933757782,-8.942500114440918,5.355000019073486,0.3849999904632568
5.551404107280911,-0.0578279979526996,-0.9640439748764038,0.2608360052108764,-30.520000457763672,6.772500038146973,3.3424999713897705
5.5716647062125935,-0.0690519958734512,-0.9567239880561828,0.1954440027475357,-34.98250198364258,7.017499923706055,5.215000152587891
5.591925305144276,-0.0812520012259483,-0.9576999545097352,0.1851959973573684,-16.922500610351562,3.972500085830689,2.6424999237060547
5.612185904075958,-0.065880000591278,-0.9672159552574158,0.236191987991333,-5.425000190734863,7.070000171661377,-0.2100000083446502
5.632446503007641,-0.0795440003275871,-0.9845399856567384,0.2205759882926941,-5.460000038146973,8.487500190734863,0.3499999940395355
5.652707101939323,-0.0775920003652572,-0.987223982810974,0.2178919911384582,-4.375,3.9375,1.1725000143051147
5.6729677008710055,-0.0778359994292259,-0.9433040022850036,0.2296039909124374,-4.287499904632568,1.9600000381469729,3.972500085830689
5.693228299802688,-0.0663679987192154,-0.9496479630470276,0.2108159959316253,-11.130000114440918,1.2599999904632568,8.050000190734863
5.71348889873437,-0.0888160020112991,-0.9794159531593324,0.1912959963083267,-16.764999389648438,2.065000057220459,4.865000247955322
5.733749497666053,-0.1537199914455413,-0.9267119765281676,0.1922719925642013,-8.505000114440918,-3.0274999141693115,-20.5625
5.754010096597735,-0.0217159986495971,-1.0062559843063354,0.2130119949579239,-3.3424999713897705,4.147500038146973,-50.470001220703125
5.774270695529418,-0.0326960012316703,-1.0435879230499268,0.2120359987020492,7.595000267028809,-2.065000057220459,-25.88249969482422
5.7945312944611,-0.0531919971108436,-0.9911279678344728,0.2505879998207092,11.74250030517578,-5.96750020980835,-11.760000228881836
5.8147918933927825,-0.0346480011940002,-0.9943000078201294,0.2410719990730285,6.387499809265137,-7.542500019073486,-11.725000381469728
5.835052492324465,-0.033671997487545,-0.9791719913482666,0.2349720001220703,-0.7524999976158142,-12.61750030517578,-6.230000019073486
5.855313091256147,-0.0231800004839897,-0.9840520024299622,0.2091079950332641,-1.680000066757202,-13.352499961853027,-5.267499923706055
5.87557369018783,-0.0212280005216598,-0.970143973827362,0.2305800020694732,4.042500019073486,-10.114999771118164,-1.9424999952316284
5.895834289119512,-0.0287919994443655,-0.9679479598999025,0.2239919900894165,1.9600000381469729,-8.172499656677246,0.7875000238418579
5.9160948880511945,-0.0229359995573759,-0.9698999524116516,0.2256999909877777,-0.3675000071525574,-8.050000190734863,1.1725000143051147
5.936355486982877,-0.0195199996232986,-0.9745360016822816,0.2193560004234314,-2.1700000762939453,-4.952499866485596,1.347499966621399
5.956616085914559,-0.0185439996421337,-0.9786840081214904,0.2025199979543686,-5.565000057220459,0.8050000071525574,1.9075000286102293
5.976876684846242,-0.0224479995667934,-0.9750239849090576,0.2222839891910553,-6.002500057220459,1.3825000524520874,1.5575000047683716
5.997137283777924,-0.0158599987626075,-0.9777079820632936,0.2113039940595626,-5.425000190734863,-0.6650000214576721,1.2424999475479126
6.017397882709607,0.0014639999717473,-0.9684360027313232,0.2827959954738617,-10.90250015258789,0.4550000131130218,1.1549999713897705
6.037658481641289,-0.0434319972991943,-1.0211399793624878,0.0427000001072883,-28.50749969482422,1.6100000143051147,1.662500023841858
6.0579190805729715,-0.0314759984612464,-0.9694119691848756,0.2322880029678344,12.6875,-0.8575000166893005,-0.699999988079071
6.078179679504654,-0.0224479995667934,-0.9916160106658936,0.2125239968299865,8.977499961853027,-2.694999933242798,-1.5225000381469729
6.098440278436336,-0.020983999595046,-0.9996680021286012,0.2039839923381805,8.522500038146973,0.8050000071525574,-2.450000047683716
6.118700877368019,-0.0348920002579689,-0.9720959663391112,0.2183799892663955,10.1850004196167,2.3975000381469727,-4.53249979019165
6.138961476299701,-0.0253759995102882,-0.973315954208374,0.2227720022201538,4.585000038146973,2.6600000858306885,-1.347499966621399
6.1592220752313835,-0.023667998611927,-0.981123983860016,0.2105719894170761,0.1050000041723251,5.547500133514404,-0.5074999928474426
6.179482674163066,-0.0261080004274845,-0.9781959652900696,0.196175992488861,0.5249999761581421,5.880000114440918,-0.2975000143051147
6.199743273094748,-0.0251320004463195,-0.9769759774208068,0.2078879922628402,2.345000028610229,4.987500190734863,-0.6650000214576721
6.220003872026431,-0.0290360003709793,-0.9694119691848756,0.2130119949579239,1.5049999952316284,5.110000133514404,-0.9275000095367432
6.240264470958113,-0.0346480011940002,-0.9703879952430724,0.2127679884433746,-0.0525000020861625,5.09250020980835,-0.6825000047683716
6.260525069889796,-0.0324519984424114,-0.9725840091705322,0.2110600024461746,-0.5774999856948853,5.284999847412109,-0.3675000071525574
6.280785668821478,-0.0341599993407726,-0.9796599745750428,0.2047159969806671,-0.5074999928474426,5.985000133514404,0.1050000041723251
6.3010462677531605,-0.0353799983859062,-0.9616039991378784,0.2564440071582794,-0.5249999761581421,4.96999979019165,0.7175000309944153
6.321306866684843,-0.041967999190092,-0.9974719882011414,0.1439599990844726,-23.04750061035156,7.157500267028809,2.484999895095825
6.341567465616525,-0.0400159992277622,-0.9698999524116516,0.2166720032691955,1.6100000143051147,1.1375000476837158,2.327500104904175
6.361828064548208,-0.0407480001449584,-0.9630680084228516,0.2088640034198761,-5.460000038146973,2.782500028610229,3.202500104904175
6.38208866347989,-0.0402599982917308,-0.9840520024299622,0.1842200011014938,-7.630000114440918,1.2424999475479126,4.690000057220459
6.4023492624115725,-0.0358680002391338,-0.9767319560050964,0.2083759903907776,-4.287499904632568,-1.4175000190734863,6.037499904632568
6.422609861343255,-0.0588039979338645,-1.010159969329834,0.1927599906921386,-4.777500152587891,-3.552500009536743,9.380000114440918
6.442870460274937,-0.0544119998812675,-0.9991799592971802,0.206179991364479,-1.225000023841858,-4.637499809265137,4.795000076293945
6.46313105920662,-0.0444080010056495,-0.9803919792175292,0.2134999930858612,-1.225000023841858,-7.052500247955322,6.369999885559082
6.483391658138302,-0.0502640008926391,-0.9735599756240844,0.2120359987020492,-2.9749999046325684,-10.552499771118164,16.99250030517578
6.503652257069985,-0.0275719985365867,-0.9642879962921144,0.23887600004673,-8.522500038146973,-12.5649995803833,25.375
6.523912856001667,-0.0531919971108436,-0.9767319560050964,0.1598199903964996,-20.229999542236328,-13.859999656677246,39.3224983215332
6.5441734549333495,-0.1222440004348754,-1.0584720373153689,0.1420079916715622,-1.5225000381469729,-9.817500114440918,39.88249969482422
6.564434053865032,-0.0807639956474304,-0.9396439790725708,0.2278959900140762,13.212499618530272,-1.924999952316284,6.632500171661377
6.584694652796714,-0.0790559947490692,-0.974291980266571,0.1915400028228759,0.4375,-3.5350000858306885,0.6474999785423279
6.604955251728397,-0.0771040022373199,-0.975268006324768,0.1934919953346252,-0.3849999904632568,-3.4825000762939453,-0.0700000002980232
6.625215850660079,-0.0712479948997497,-0.9806360006332396,0.1920280009508133,-1.5049999952316284,-3.132499933242798,-1.0499999523162842
6.6454764495917615,-0.0680759996175766,-0.9860039949417114,0.1849519908428192,-1.0674999952316284,-2.625,-1.1024999618530271
6.665737048523444,-0.0705159977078437,-0.9813680052757264,0.1861719936132431,1.190000057220459,-2.555000066757202,0.1400000005960464
6.685997647455126,-0.0692960023880004,-0.9799039959907532,0.1947119981050491,1.9774999618530276,-2.432500123977661,0.4724999964237213
6.706258246386809,-0.0678320005536079,-0.9796599745750428,0.1915400028228759,0.4375,-1.3125,0.3849999904632568
6.726518845318491,-0.066611997783184,-0.9747799634933472,0.1942239999771118,-0.3499999940395355,-0.1574999988079071,-0.0350000001490116
6.746779444250174,-0.0724679976701736,-0.9886879920959472,0.1793399900197982,-2.414999961853028,-0.3149999976158142,-0.2975000143051147
6.767040043181856,-0.0719799995422363,-0.9906399846076964,0.1903200000524521,1.2074999809265137,-1.7675000429153442,0.3849999904632568
6.7873006421135385,-0.0751519948244094,-0.9860039949417114,0.1878799945116043,3.1675000190734863,-2.240000009536743,-0.0874999985098838
6.807561241045221,-0.0724679976701736,-0.9791719913482666,0.1922719925642013,3.5,-0.7524999976158142,-1.5225000381469729
6.827821839976903,-0.0744199976325035,-0.9672159552574158,0.1971519887447357,3.3600001335144043,0.7350000143051147,-1.1725000143051147
6.848082438908586,-0.0834480002522468,-0.9723399877548218,0.1942239999771118,1.1549999713897705,1.5750000476837158,-0.5074999928474426
6.868343037840268,-0.0836919993162155,-0.9803919792175292,0.1803160011768341,0.9975000023841858,1.4350000619888306,-0.7875000238418579
6.8886036367719505,-0.0895479992032051,-0.9667279720306396,0.201787993311882,5.425000190734863,1.399999976158142,-1.5924999713897705
6.908864235703633,-0.0934519991278648,-0.9711199998855592,0.210327997803688,1.3125,-1.2949999570846558,-3.307500123977661
6.929124834635315,-0.0905239954590797,-0.9796599745750428,0.2066679894924163,-2.8350000381469727,-2.432500123977661,-6.912499904632568
6.949385433566998,-0.0783239975571632,-0.9764879941940308,0.1912959963083267,3.745000123977661,-0.9975000023841858,-16.047500610351562
6.96964603249868,-0.0778359994292259,-0.9738039970397948,0.2108159959316253,2.782500028610229,-1.5399999618530271,-22.102500915527344
6.989906631430363,-0.046604000031948,-0.9716079831123352,0.2098399996757507,-3.5174999237060547,-0.0175000000745058,-29.399999618530277
7.010167230362045,-0.0322079993784427,-0.966484010219574,0.2093520015478134,-7.402500152587891,0.2975000143051147,-26.075000762939453
7.0304278292937274,-0.0451399981975555,-0.993079960346222,0.1944679915904998,-9.449999809265137,-1.277500033378601,-18.8125
7.05068842822541,-0.0148839997127652,-0.9711199998855592,0.2000799924135208,-12.302499771118164,5.425000190734863,-27.14249992370605
7.070949027157092,-0.0222040005028247,-0.9913719892501832,0.1768999993801117,-12.670000076293944,-1.1375000476837158,-17.850000381469727
7.091209626088775,-0.0112239997833967,-0.9896639585494996,0.1708000004291534,-5.442500114440918,-5.110000133514404,-12.232500076293944
7.111470225020457,-0.0026839999482035,-0.9874680042266846,0.1939799934625625,-0.5425000190734863,-5.862500190734863,-8.592499732971191
7.1317308239521395,-0.0004879999905824,-0.9835639595985411,0.1739719957113266,0.699999988079071,-4.847499847412109,-2.870000123977661
7.151991422883822,-0.0073199998587369,-0.9869799613952636,0.1668960005044937,5.565000057220459,-1.9774999618530276,1.5399999618530271
7.172252021815504,-0.0202520005404949,-0.9821000099182128,0.1942239999771118,10.832500457763672,-0.9275000095367432,2.6600000858306885
7.192512620747187,-0.0207399986684322,-0.977952003479004,0.2049599885940551,9.957500457763672,-1.5049999952316284,1.3125
7.212773219678869,-0.0202520005404949,-0.975268006324768,0.2012999951839447,5.512499809265137,-2.712500095367432,0.9449999928474426
7.233033818610552,-0.0185439996421337,-0.9794159531593324,0.1964199990034103,1.3300000429153442,-4.829999923706055,0.8924999833106995
7.253294417542234,-0.0180559996515512,-0.9838079810142516,0.1890999972820282,0.4025000035762787,-6.40500020980835,-0.262499988079071
7.2735550164739164,-0.0204959996044635,-0.9855159521102904,0.1964199990034103,2.414999961853028,-6.597499847412109,-3.674999952316284
7.293815615405599,-0.0158599987626075,-0.974291980266571,0.1971519887447357,3.762500047683716,-9.274999618530272,-7.735000133514404
7.314076214337281,-0.003171999938786,-0.9842959642410278,0.2010560035705566,4.375,-12.442500114440918,-10.779999732971191
7.334336813268964,0.0051239999011158,-0.9813680052757264,0.2132560014724731,1.5575000047683716,-12.31999969482422,-11.84749984741211
7.354597412200646,-0.0309880003333091,-1.0052800178527832,0.1881240010261535,2.117500066757202,-5.809999942779541,-25.44499969482422
7.3748580111323285,0.0485559999942779,-0.9757559895515442,0.2076440006494522,2.8350000381469727,0.5249999761581421,-44.32749938964844
7.395118610064011,0.0297679994255304,-0.9845399856567384,0.1969079971313476,4.252500057220459,-2.502500057220459,-37.64250183105469
7.415379208995693,0.042943999171257,-0.9716079831123352,0.2147199958562851,3.0450000762939453,0.3849999904632568,-45.727500915527344
7.435639807927376,0.0812520012259483,-0.9747799634933472,0.2222839891910553,-0.8924999833106995,0.6825000047683716,-50.067501068115234
7.455900406859058,0.124439999461174,-0.9662399888038636,0.2076440006494522,-6.247499942779541,0.5249999761581421,-45.0099983215332
7.476161005790741,0.1063839942216873,-0.9791719913482666,0.1915400028228759,-7.034999847412109,-0.9975000023841858,-26.600000381469727
7.496421604722423,0.1337119936943054,-0.9681919813156128,0.1932480037212371,-6.422500133514404,0.1924999952316284,-15.085000038146973
7.516682203654105,0.1046760007739067,-0.9818559885025024,0.1886119991540908,-3.884999990463257,3.377500057220459,-1.0674999952316284
7.536942802585788,0.0993079990148544,-0.9796599745750428,0.1973959952592849,-2.1524999141693115,5.652500152587891,3.377500057220459
7.55720340151747,0.0905239954590797,-0.9906399846076964,0.1925159990787506,0.5950000286102295,4.21750020980835,6.090000152587891
7.577464000449153,0.095891997218132,-0.9789279699325562,0.2010560035705566,1.7324999570846558,2.782500028610229,5.599999904632568
7.597724599380835,0.0978439971804618,-0.9725840091705322,0.1954440027475357,0.0700000002980232,2.275000095367432,8.802499771118164
7.6179851983125175,0.0817399993538856,-0.9757559895515442,0.1898320019245147,-2.117500066757202,1.1725000143051147,13.457500457763672
7.6382457972442,0.085887998342514,-0.9781959652900696,0.1783639937639236,-2.414999961853028,-0.875,15.172499656677246
7.658506396175882,0.0863759964704513,-0.9711199998855592,0.1912959963083267,0.875,-3.150000095367432,18.95249938964844
7.678766995107565,0.0700279995799064,-0.9716079831123352,0.191783994436264,-3.307500123977661,-5.880000114440918,29.68000030517578
7.699027594039247,0.0409919992089271,-0.9791719913482666,0.2005679905414581,-6.632500171661377,-2.9574999809265137,26.28499984741211
7.71928819297093,0.0751519948244094,-0.981123983860016,0.1542080044746399,-3.692500114440918,-1.7675000429153442,21.73500061035156
7.739548791902612,-0.003171999938786,-1.0040600299835205,0.1754359900951385,7.227499961853027,-5.949999809265137,28.73500061035156
7.759809390834294,0.0156159996986389,-0.9801479578018188,0.2105719894170761,6.772500038146973,-4.147500038146973,14.332500457763672
7.780069989765977,0.0143959997221827,-0.9777079820632936,0.2056919932365417,0.3675000071525574,-3.849999904632568,5.337500095367432
7.800330588697659,0.0314759984612464,-0.9874680042266846,0.2110600024461746,-7.542500019073486,-4.637499809265137,-1.715000033378601
7.820591187629342,0.0263519994914531,-1.0033279657363892,0.2227720022201538,-11.84749984741211,-2.555000066757202,-4.340000152587891
7.840851786561024,0.0248879995197057,-1.007475972175598,0.1890999972820282,-20.26499938964844,0.332500010728836,-10.324999809265137
7.8611123854927065,0.0505079999566078,-0.9860039949417114,0.1461559981107711,-21.21000099182129,3.5174999237060547,-13.05500030517578
7.881372984424389,0.0470919981598854,-0.982587993144989,0.1239520013332367,-14.682499885559082,2.870000123977661,-6.230000019073486
7.901633583356071,0.0497759990394115,-0.9850279688835144,0.1708000004291534,-7.420000076293945,3.762500047683716,-2.117500066757202
7.921894182287754,0.0458719991147518,-1.0106480121612549,0.1639679968357086,-8.680000305175781,9.292500495910645,2.9049999713897705
7.942154781219436,0.0304999984800815,-0.9877119660377502,0.1656759977340698,1.4175000190734863,20.96500015258789,2.870000123977661
7.962415380151119,0.0200079996138811,-1.0094280242919922,0.1820240020751953,15.4350004196167,22.24250030517578,7.244999885559082
7.982675979082801,0.0258639995008707,-0.9974719882011414,0.1983719915151596,8.645000457763672,31.71000099182129,15.977499961853027
8.002936578014483,0.0366000011563301,-0.925491988658905,0.0988200008869171,-6.947500228881836,33.38999938964844,3.622499942779541
8.023197176946164,0.075883999466896,-0.933299958705902,0.0807639956474304,-31.5,58.2400016784668,-1.5575000047683716
8.043457775877846,-0.020983999595046,-1.0116239786148071,0.1842200011014938,-24.552499771118164,39.40999984741211,2.940000057220459
8.063718374809527,0.0190319996327161,-1.0047919750213623,0.06734399497509,-11.44499969482422,-0.1574999988079071,2.0824999809265137
8.083978973741209,0.0180559996515512,-0.9945439696311952,0.1183400005102157,3.797500133514404,-9.765000343322754,0.4900000095367431
8.10423957267289,0.0034159999340772,-0.9550159573554992,0.13468798995018,-2.5199999809265137,-28.104999542236328,-0.2450000047683715
8.124500171604572,0.052216000854969,-1.0082080364227295,0.171775996685028,-17.167499542236328,-39.91749954223633,-1.277500033378601
8.144760770536253,0.047335997223854,-1.0716480016708374,0.1612839996814727,6.5625,-11.462499618530272,0.9275000095367432
8.165021369467935,0.0278159994632005,-0.9598959684371948,0.1359079927206039,28.73500061035156,-15.81999969482422,1.8200000524520876
8.185281968399616,0.0102479998022317,-1.0187000036239624,0.2376559972763061,21.01749992370605,-31.780000686645508,5.565000057220459
8.205542567331298,0.0727119967341423,-0.9603840112686156,0.1664080023765564,32.7599983215332,-42.29750061035156,11.654999732971191
8.22580316626298,0.0807639956474304,-0.9032880067825316,0.3108559846878052,26.040000915527344,-21.03499984741211,21.13999938964844
8.246063765194661,0.0880839973688125,-0.977463960647583,0.134443998336792,-50.540000915527344,7.980000019073486,45.63999938964844
8.266324364126342,0.0043919999152421,-0.9952759742736816,0.0814960002899169,-10.46500015258789,-24.36000061035156,103.5999984741211
8.286584963058024,-0.2208199948072433,-1.0521279573440552,0.119559995830059,32.165000915527344,-29.225000381469727,102.25250244140624
8.306845561989705,-0.1107759997248649,-0.9972279667854308,0.1786080002784729,71.50499725341797,-58.32749938964844,43.540000915527344
8.327106160921387,-0.0597799979150295,-0.9503799676895142,0.2754760086536407,54.67000198364258,-40.95000076293945,14.630000114440918
8.347366759853069,-0.0841799974441528,-0.9681919813156128,0.2854799926280975,33.897499084472656,-41.91249847412109,19.02250099182129
8.36762735878475,-0.0968680009245872,-0.9686799645423888,0.236191987991333,9.204999923706056,-19.774999618530277,4.357500076293945
8.387887957716432,-0.0790559947490692,-0.966484010219574,0.2557120025157928,3.745000123977661,-20.982500076293945,-0.0350000001490116
8.408148556648113,-0.0646599978208541,-0.9711199998855592,0.253028005361557,-0.7524999976158142,-14.279999732971191,-0.1924999952316284
8.428409155579795,-0.0844239965081214,-0.9637999534606934,0.2376559972763061,-3.9375,0.262499988079071,-0.8575000166893005
8.448669754511476,-0.090279996395111,-0.9918599724769592,0.2366800010204315,-4.340000152587891,-0.3149999976158142,-1.627500057220459
8.468930353443158,-0.0749079957604408,-0.9674599766731262,0.2400960028171539,-0.612500011920929,-0.9275000095367432,-2.380000114440918
8.48919095237484,-0.0807639956474304,-0.9730719923973083,0.2195999920368194,-2.922499895095825,1.6100000143051147,-2.0824999809265137
8.50945155130652,-0.0817399993538856,-0.969655990600586,0.224480003118515,-2.6075000762939453,-3.132499933242798,0.6650000214576721
8.529712150238202,-0.0729559957981109,-0.9672159552574158,0.2464399933815002,-6.019999980926514,-8.505000114440918,3.132499933242798
8.549972749169884,-0.0797879993915557,-0.9596520066261292,0.2547360062599182,-10.079999923706056,-3.3424999713897705,2.625
8.570233348101565,-0.0849120020866394,-0.9794159531593324,0.2149640023708343,-13.5625,-0.1225000023841857,1.1549999713897705
8.590493947033247,-0.0812520012259483,-0.9767319560050964,0.2178919911384582,-2.922499895095825,1.8200000524520876,-0.1050000041723251
8.610754545964928,-0.0836919993162155,-0.9677039980888368,0.2310680001974105,-1.2599999904632568,2.6600000858306885,-1.2074999809265137
8.63101514489661,-0.0788119956851005,-0.9679479598999025,0.2066679894924163,-5.565000057220459,0.6650000214576721,-2.414999961853028
8.651275743828291,-0.0768599957227706,-0.9747799634933472,0.2020319998264312,-4.182499885559082,0.0175000000745058,-2.7300000190734863
8.671536342759973,-0.0780799984931945,-0.9938119649887084,0.1900759935379028,6.072500228881836,-1.5225000381469729,-0.6474999785423279
8.691796941691655,-0.0800319984555244,-0.9691680073738098,0.2437559962272644,19.337499618530277,-2.0299999713897705,1.5575000047683716
8.712057540623336,-0.0800319984555244,-0.9579439759254456,0.2564440071582794,10.850000381469728,-1.3825000524520874,1.995000004768372
8.732318139555018,-0.0217159986495971,-0.9298839569091796,0.2418039888143539,-31.412500381469727,16.467500686645508,3.307500123977661
8.752578738486699,-0.1407880038022995,-1.0099159479141235,0.1578679978847503,-16.309999465942383,8.855000495910645,30.677499771118164
8.77283933741838,-0.0922319963574409,-0.9777079820632936,0.2217959910631179,6.492499828338623,-8.4350004196167,0.6650000214576721
8.793099936350062,-0.0946719944477081,-0.9764879941940308,0.220331996679306,10.675000190734863,-7.052500247955322,0.9975000023841858
8.813360535281744,-0.0997959971427917,-0.9703879952430724,0.2330199927091598,10.86750030517578,-6.212500095367432,0.9100000262260436
8.833621134213425,-0.0929640009999275,-0.9735599756240844,0.2378999888896942,7.909999847412109,-6.474999904632568,-0.0350000001490116
8.853881733145107,-0.0973559990525245,-0.9738039970397948,0.2296039909124374,3.150000095367432,-1.1375000476837158,-0.6650000214576721
8.874142332076788,-0.0978439971804618,-0.9691680073738098,0.2274079918861389,1.662500023841858,-0.1050000041723251,-0.5249999761581421
8.89440293100847,-0.0963799953460693,-0.9711199998855592,0.2242359966039657,1.3125,-0.1225000023841857,-0.2275000065565109
8.914663529940151,-0.0451399981975555,-0.8920639753341675,0.3567279875278473,-18.23500061035156,12.600000381469728,-0.2275000065565109
8.934924128871833,-0.0068319998681545,-0.9950319528579712,0.0551439970731735,-62.317501068115234,27.002500534057617,31.27250099182129
8.955184727803514,-0.2776719927787781,-1.0362679958343506,0.1459119915962219,-8.662500381469727,31.815000534057617,40.880001068115234
8.975445326735196,-0.1307840049266815,-0.9423279762268066,0.2727919816970825,6.510000228881836,12.635000228881836,0.4375
8.995705925666877,-0.1222440004348754,-0.993079960346222,0.1615279912948608,-4.952499866485596,-3.867500066757202,0.4375
9.015966524598559,-0.1271239966154098,-0.9679479598999025,0.2125239968299865,2.047499895095825,-0.262499988079071,-0.2800000011920929
9.03622712353024,-0.1219999939203262,-0.9750239849090576,0.191783994436264,0.332500010728836,-1.2949999570846558,-0.0874999985098838
9.056487722461922,-0.1178519949316978,-0.9821000099182128,0.1883679926395416,2.380000114440918,-0.1050000041723251,-0.1749999970197677
9.076748321393604,-0.1254159957170486,-0.972827970981598,0.2008119970560073,7.630000114440918,4.619999885559082,-0.6299999952316284
9.097008920325285,-0.1241960003972053,-0.9698999524116516,0.1983719915151596,6.457499980926514,3.325000047683716,-0.4724999964237213
9.117269519256967,-0.1229759976267814,-0.9679479598999025,0.2108159959316253,4.392499923706055,-0.5950000286102295,-0.0700000002980232
9.137530118188648,-0.1259039938449859,-0.969655990600586,0.20032399892807,0.6299999952316284,-0.6474999785423279,-0.2450000047683715
9.15779071712033,-0.1278560012578964,-0.9672159552574158,0.2159399986267089,-0.5425000190734863,-0.4375,-0.2800000011920929
9.178051316052011,-0.1234639957547187,-0.9789279699325562,0.1829999983310699,-3.1675000190734863,-0.4900000095367431,-0.0350000001490116
9.198311914983693,-0.1249279975891113,-0.9642879962921144,0.2127679884433746,-1.0674999952316284,1.1725000143051147,0.0525000020861625
9.218572513915374,-0.124439999461174,-0.9762439727783204,0.1786080002784729,-2.747499942779541,0.8050000071525574,0.2450000047683715
9.238833112847056,-0.1280999928712844,-0.966484010219574,0.2095959931612014,1.3300000429153442,1.627500057220459,0.2275000065565109
9.259093711778737,-0.128831997513771,-0.9635559916496276,0.1839759945869445,-1.715000033378601,1.0149999856948853,0.4724999964237213
9.279354310710419,-0.1315159946680069,-0.9642879962921144,0.1988599896430969,-0.4200000166893005,-0.0350000001490116,0.6650000214576721
9.2996149096421,-0.1293199956417083,-0.9620919823646544,0.1947119981050491,-0.6650000214576721,-0.1749999970197677,1.0149999856948853
9.319875508573782,-0.1305399984121322,-0.9630680084228516,0.2005679905414581,-0.4200000166893005,-0.262499988079071,1.5399999618530271
9.340136107505463,-0.1205359995365142,-0.977952003479004,0.1912959963083267,-2.572499990463257,-0.6474999785423279,1.6449999809265137
9.360396706437145,-0.1193159967660904,-0.9796599745750428,0.2039839923381805,-0.262499988079071,-3.920000076293945,1.3300000429153442
9.380657305368826,-0.1219999939203262,-0.9823439717292786,0.20032399892807,-1.3825000524520874,-3.972500085830689,1.2424999475479126
9.400917904300508,-0.1224879994988441,-0.9833199977874756,0.2010560035705566,-1.924999952316284,-3.255000114440918,0.8224999904632568
9.42117850323219,-0.1251720041036605,-0.9769759774208068,0.201787993311882,-0.6825000047683716,-1.75,0.3149999976158142
9.441439102163871,-0.1249279975891113,-0.975268006324768,0.196175992488861,1.1725000143051147,-1.7324999570846558,0.0350000001490116
9.461699701095553,-0.1300520002841949,-0.9718520045280457,0.2000799924135208,3.184999942779541,-1.715000033378601,-0.0175000000745058
9.481960300027234,-0.1278560012578964,-0.9764879941940308,0.2042279988527298,4.164999961853027,-3.640000104904175,0.0175000000745058
9.502220898958916,-0.1229759976267814,-0.9691680073738098,0.2113039940595626,3.237499952316284,-4.042500019073486,0.6299999952316284
9.522481497890597,-0.124439999461174,-0.9630680084228516,0.2081319987773895,0.1924999952316284,-2.065000057220459,0.875
9.542742096822279,-0.1234639957547187,-0.974291980266571,0.2000799924135208,-2.450000047683716,-0.8400000333786011,0.6650000214576721
9.56300269575396,-0.1234639957547187,-0.9869799613952636,0.1803160011768341,-0.4200000166893005,-0.1574999988079071,1.3125
9.583263294685642,-0.1249279975891113,-0.9842959642410278,0.2049599885940551,6.247499942779541,-0.6474999785423279,2.694999933242798
9.603523893617323,-0.1227319985628128,-0.9842959642410278,0.2193560004234314,8.015000343322754,-0.962499976158142,2.9574999809265137
9.623784492549005,-0.1273680031299591,-0.9828319549560548,0.2230159938335418,6.912499904632568,0.1050000041723251,2.799999952316284
9.644045091480686,-0.119559995830059,-0.961847960948944,0.2383880019187927,0.8050000071525574,4.707499980926514,2.484999895095825
9.664305690412368,-0.1283439993858337,-0.9703879952430724,0.1815359890460968,-1.2949999570846558,6.982500076293945,1.2599999904632568
9.68456628934405,-0.1256600022315979,-0.9943000078201294,0.2078879922628402,4.147500038146973,7.769999980926514,-0.2100000083446502
9.704826888275731,-0.1461559981107711,-0.9918599724769592,0.1954440027475357,5.267499923706055,8.4350004196167,0.2450000047683715
9.725087487207412,-0.1273680031299591,-0.9928359985351562,0.2127679884433746,4.550000190734863,-1.4175000190734863,0.8924999833106995
9.745348086139094,-0.1117519959807396,-0.9894199967384338,0.1995919942855835,5.284999847412109,0.699999988079071,0.0350000001490116
9.765608685070776,-0.1100439950823783,-0.975268006324768,0.1756799966096878,7.857500076293945,4.252500057220459,-1.0674999952316284
9.785869284002457,-0.1080919951200485,-0.9659959673881532,0.1825120002031326,8.4350004196167,3.0450000762939453,-0.8400000333786011
9.806129882934139,-0.1078479960560798,-0.9633119702339172,0.1856839954853058,7.017499923706055,4.637499809265137,-0.9275000095367432
9.82639048186582,-0.1207799986004829,-0.962336003780365,0.1808039993047714,6.369999885559082,8.557499885559082,-1.662500023841858
9.846651080797502,-0.1283439993858337,-0.9684360027313232,0.1710439920425415,5.84499979019165,8.977499961853027,-2.3975000381469727
9.866911679729183,-0.1259039938449859,-0.9730719923973083,0.1771439909934997,5.932499885559082,9.904999732971191,-2.7300000190734863
9.887172278660865,-0.1271239966154098,-0.9657520055770874,0.1820240020751953,5.162499904632568,12.600000381469728,-3.552500009536743
9.907432877592546,-0.1285879909992218,-0.9591639637947084,0.1737279891967773,3.7100000381469727,13.772500038146973,-4.829999923706055
9.927693476524228,-0.1315159946680069,-0.9433040022850036,0.1678719967603683,2.555000066757202,14.332500457763672,-5.949999809265137
9.94795407545591,-0.1427399963140487,-0.9271999597549438,0.1612839996814727,0.4724999964237213,16.15250015258789,-6.912499904632568
9.96821467438759,-0.1566479951143264,-0.9113399982452391,0.1810479909181594,-8.960000038146973,18.497499465942383,-6.860000133514404
9.988475273319272,-0.1715319901704788,-0.8903560042381287,0.210327997803688,-13.125,20.59749984741211,-6.247499942779541
10.008735872250954,-0.1825120002031326,-0.9054839611053468,0.2156959921121597,-20.684999465942383,21.4375,-5.565000057220459
10.028996471182635,-0.1800719946622848,-0.9159759879112244,0.2325319945812225,-24.762500762939453,21.770000457763672,-4.742499828338623
10.049257070114317,-0.1651879996061325,-0.9437919855117798,0.2396079897880554,-29.155000686645508,22.17250061035156,-3.867500066757202
10.069517669045998,-0.1507920026779174,-0.9777079820632936,0.2349720001220703,-30.32749938964844,23.292499542236328,-3.849999904632568
10.08977826797768,-0.1485960036516189,-0.994055986404419,0.2383880019187927,-27.07250022888184,24.412500381469727,-4.112500190734863
10.110038866909361,-0.1534759998321533,-1.0062559843063354,0.2466839998960495,-22.977500915527344,24.88500022888184,-4.672500133514404
10.130299465841043,-0.1595759987831115,-1.010159969329834,0.248879998922348,-17.815000534057617,25.375,-5.6875
10.150560064772725,-0.1566479951143264,-1.010892033576965,0.2471719980239868,-12.390000343322754,25.549999237060547,-6.894999980926514
10.170820663704406,-0.1512800008058548,-1.0055240392684937,0.2408279925584793,-8.032500267028809,25.725000381469727,-8.154999732971191
10.191081262636088,-0.1393239945173263,-0.9989359974861144,0.2393639981746673,-5.215000152587891,26.145000457763672,-9.397500038146973
10.21134186156777,-0.134443998336792,-0.9952759742736816,0.2276519984006881,-3.1675000190734863,26.162500381469727,-10.675000190734863
10.23160246049945,-0.1337119936943054,-0.9842959642410278,0.2271640002727508,0.3149999976158142,26.127500534057617,-12.109999656677246
10.251863059431132,-0.1398119926452636,-0.9894199967384338,0.2208199948072433,1.5575000047683716,25.655000686645508,-12.61750030517578
10.272123658362814,-0.1456679999828338,-0.9923479557037354,0.2198439985513687,3.972500085830689,24.88500022888184,-12.494999885559082
10.292384257294495,-0.1556719988584518,-0.9911279678344728,0.2105719894170761,6.317500114440918,23.11750030517578,-12.074999809265137
10.312644856226177,-0.1664080023765564,-0.98990797996521,0.20032399892807,9.100000381469728,20.26499938964844,-11.864999771118164
10.332905455157858,-0.1659199893474578,-0.9921039938926696,0.1978839933872223,10.587499618530272,16.25749969482422,-11.322500228881836
10.35316605408954,-0.1617719978094101,-0.9989359974861144,0.1886119991540908,12.6875,12.704999923706056,-10.605000495910645
10.373426653021221,-0.1381039917469024,-0.9877119660377502,0.1764120012521743,14.36750030517578,8.960000038146973,-9.274999618530272
10.393687251952903,-0.1444479972124099,-0.9964959621429444,0.1461559981107711,14.4375,4.585000038146973,-7.857500076293945
10.413947850884584,-0.1115079969167709,-0.9750239849090576,0.1542080044746399,16.065000534057617,-0.5774999856948853,-7.699999809265137
10.434208449816266,-0.1132159978151321,-0.9960079789161682,0.147376000881195,12.862500190734863,-4.637499809265137,-7.454999923706055
10.454469048747947,-0.0907679945230484,-0.9928359985351562,0.1337119936943054,13.52750015258789,-7.28000020980835,-8.242500305175781
10.474729647679629,-0.0741759985685348,-0.9698999524116516,0.1317600011825561,14.105000495910645,-10.9375,-8.487500190734863
10.49499024661131,-0.0600240007042884,-0.961847960948944,0.1249279975891113,12.477499961853027,-14.017499923706056,-7.71750020980835
10.515250845542992,-0.0463600009679794,-0.9469639658927916,0.1168759986758232,9.957500457763672,-14.262499809265137,-5.652500152587891
10.535511444474674,-0.0326960012316703,-0.94159597158432,0.1166319996118545,6.037499904632568,-14.489999771118164,-2.852499961853028
10.555772043406355,-0.0361119993031024,-0.9662399888038636,0.1232199966907501,0.0350000001490116,-14.315000534057615,-0.612500011920929
10.576032642338037,-0.0573399998247623,-1.039440035820007,0.1461559981107711,-4.480000019073486,-13.96500015258789,-0.6474999785423279
10.596293241269718,-0.0514839999377727,-1.0452959537506104,0.1461559981107711,-1.2074999809265137,-15.154999732971191,-2.1524999141693115
10.6165538402014,-0.0351359993219375,-1.0191879272460938,0.1464000046253204,3.7100000381469727,-15.942500114440918,-3.377500057220459
10.636814439133081,-0.0165919996798038,-0.987223982810974,0.1507920026779174,5.565000057220459,-15.154999732971191,-3.884999990463257
10.657075038064763,0.0017079999670386,-0.9684360027313232,0.1439599990844726,4.199999809265137,-12.582500457763672,-3.849999904632568
10.677335636996444,-0.0026839999482035,-0.9555040001869202,0.1371279954910278,2.694999933242798,-9.362500190734863,-3.6050000190734863
10.697596235928126,0.0024399999529123,-0.9459879994392396,0.1395680010318756,1.6449999809265137,-7.559999942779541,-3.4124999046325684
10.717856834859807,-0.0046359999105334,-0.9452559947967528,0.1661639958620071,0.9275000095367432,-5.512499809265137,-2.940000057220459
10.738117433791489,0.0092719998210668,-0.96697199344635,0.1834879964590072,-1.5750000476837158,-2.6424999237060547,-1.837499976158142
10.75837803272317,0.0156159996986389,-0.986735999584198,0.1837320029735565,-3.990000009536743,1.9075000286102293,-0.2100000083446502
10.778638631654852,0.0068319998681545,-0.974291980266571,0.1820240020751953,-3.569999933242798,5.932499885559082,0.4724999964237213
10.798899230586533,-0.0043919999152421,-0.9713639616966248,0.1812919974327087,-3.7799999713897705,7.454999923706055,0.4375
10.819159829518215,-0.010491999797523,-0.9879559874534608,0.1837320029735565,-4.900000095367432,8.032500267028809,1.0325000286102295
10.839420428449897,-0.0141519997268915,-1.0111359357833862,0.1925159990787506,-4.917500019073486,9.170000076293944,2.257499933242798
10.859681027381578,-0.0078079998493194,-1.034559965133667,0.2027639895677566,-3.307500123977661,10.56999969482422,3.184999942779541
10.87994162631326,0.0009759999811649,-1.0477359294891355,0.1988599896430969,-0.3849999904632568,12.460000038146973,3.132499933242798
10.900202225244941,-0.0153719997033476,-1.0155279636383057,0.2005679905414581,8.960000038146973,12.074999809265137,-0.0700000002980232
10.920462824176623,-0.032940000295639,-0.9921039938926696,0.2078879922628402,8.767499923706055,10.53499984741211,-0.9275000095367432
10.940723423108304,-0.047580000013113,-0.9821000099182128,0.1930039972066879,5.932499885559082,10.395000457763672,-1.2074999809265137
10.960984022039986,-0.0517279990017414,-0.9767319560050964,0.1803160011768341,4.059999942779541,10.202500343322754,-0.9975000023841858
10.981244620971667,-0.0544119998812675,-0.974291980266571,0.1820240020751953,3.0625,8.697500228881836,-0.7350000143051147
11.001505219903349,-0.0692960023880004,-0.9691680073738098,0.1939799934625625,1.4350000619888306,6.860000133514404,-0.3149999976158142
11.02176581883503,-0.0839359983801841,-0.9755119681358336,0.1981279999017715,-0.875,4.637499809265137,0.5600000023841858
11.042026417766712,-0.0868639945983886,-0.9884439706802368,0.1861719936132431,-1.5924999713897705,1.4874999523162842,1.5399999618530271
11.062287016698393,-0.0729559957981109,-0.9918599724769592,0.1625040024518966,-0.1050000041723251,-1.0499999523162842,2.309999942779541
11.082547615630075,-0.0680759996175766,-0.9918599724769592,0.1503039896488189,1.2074999809265137,-2.1875,2.7300000190734863
11.102808214561756,-0.0793000012636184,-0.9869799613952636,0.1512800008058548,1.9075000286102293,-3.7274999618530273,3.0450000762939453
11.123068813493438,-0.1056519970297813,-0.9606279730796814,0.1656759977340698,1.9600000381469729,-5.757500171661377,4.112500190734863
11.14332941242512,-0.1066280007362365,-0.9472079873085022,0.152988001704216,-2.747499942779541,-7.612500190734863,6.264999866485596
11.163590011356801,-0.0675880014896392,-0.936959981918335,0.1420079916715622,-1.3300000429153442,-5.985000133514404,8.085000038146973
11.183850610288482,-0.0649039968848228,-0.965507984161377,0.1280999928712844,-6.335000038146973,-2.747499942779541,10.412500381469728
11.204111209220164,-0.0800319984555244,-0.9547719955444336,0.1390800029039383,-5.302500247955322,-0.2450000047683715,11.88249969482422
11.224371808151846,-0.0978439971804618,-0.9674599766731262,0.1434720009565353,-7.4375,1.3300000429153442,13.212499618530272
11.244632407083527,-0.1317600011825561,-0.9762439727783204,0.1625040024518966,-7.822500228881836,1.1375000476837158,13.230000495910645
11.264893006015209,-0.1615279912948608,-1.0062559843063354,0.1676279902458191,-8.34749984741211,-1.662500023841858,12.1274995803833
11.28515360494689,-0.1747040003538131,-1.0218719244003296,0.1629920005798339,-5.267499923706055,-5.144999980926514,10.605000495910645
11.305414203878572,-0.1725080013275146,-1.024799942970276,0.1647000014781952,-1.347499966621399,-8.487500190734863,9.449999809265137
11.325674802810253,-0.1612839996814727,-1.014796018600464,0.1639679968357086,0.9100000262260436,-11.217499732971191,9.11750030517578
11.345935401741935,-0.1444479972124099,-0.9799039959907532,0.1768999993801117,2.677500009536743,-13.737500190734863,9.327500343322754
11.366196000673616,-0.1307840049266815,-0.9674599766731262,0.1793399900197982,1.277500033378601,-16.450000762939453,9.677499771118164
11.386456599605298,-0.1295640021562576,-0.9591639637947084,0.181779995560646,0.6650000214576721,-17.97249984741211,9.362500190734863
11.40671719853698,-0.1322479993104934,-0.9589200019836426,0.1878799945116043,0.1050000041723251,-18.82999992370605,8.819999694824219
11.42697779746866,-0.1295640021562576,-0.9550159573554992,0.1993480026721954,-1.0325000286102295,-18.917499542236328,8.78499984741211
11.447238396400342,-0.124439999461174,-0.9594079852104188,0.1888559907674789,-2.887500047683716,-17.797500610351562,8.907500267028809
11.467498995332024,-0.1168759986758232,-0.958675980567932,0.1810479909181594,-4.059999942779541,-16.65999984741211,8.942500114440918
11.487759594263705,-0.1012599989771843,-0.9662399888038636,0.1795839965343475,-5.582499980926514,-16.59000015258789,8.925000190734863
11.508020193195387,-0.0993079990148544,-0.9708759784698486,0.1942239999771118,-6.737500190734863,-15.645000457763672,8.592499732971191
11.528280792127068,-0.1156559959053993,-0.981611967086792,0.1920280009508133,-7.822500228881836,-13.807499885559082,8.032500267028809
11.54854139105875,-0.1359079927206039,-0.9864919781684875,0.1895879954099655,-6.982500076293945,-12.547499656677246,7.070000171661377
11.568801989990432,-0.1390800029039383,-0.9864919781684875,0.1937360018491745,-5.039999961853027,-12.547499656677246,5.897500038146973
11.589062588922113,-0.1434720009565353,-0.9840520024299622,0.1912959963083267,-3.307500123977661,-12.967499732971191,5.110000133514404
11.609323187853795,-0.1454239934682846,-0.97843998670578,0.185928001999855,-2.0824999809265137,-13.265000343322754,4.777500152587891
11.629583786785476,-0.143227994441986,-0.9694119691848756,0.1851959973573684,-1.0674999952316284,-13.369999885559082,5.039999961853027
11.649844385717158,-0.1481079906225204,-0.9723399877548218,0.1869039982557296,-1.2599999904632568,-13.300000190734863,5.494999885559082
11.67010498464884,-0.1507920026779174,-0.9799039959907532,0.1937360018491745,-1.2949999570846558,-13.545000076293944,5.617499828338623
11.69036558358052,-0.1444479972124099,-0.981123983860016,0.1934919953346252,-0.7350000143051147,-14.175000190734863,5.617499828338623
11.710626182512202,-0.13468798995018,-0.9808799624443054,0.1932480037212371,0.262499988079071,-14.420000076293944,5.494999885559082
11.730886781443884,-0.1290760040283203,-0.9772199988365172,0.1949559897184372,1.5049999952316284,-14.595000267028809,5.25
11.751147380375565,-0.1261480003595352,-0.9723399877548218,0.195932000875473,2.450000047683716,-15.172499656677246,5.25
11.771407979307247,-0.1261480003595352,-0.9716079831123352,0.1834879964590072,1.995000004768372,-13.93000030517578,5.425000190734863
11.791668578238928,-0.130295991897583,-0.9808799624443054,0.181779995560646,1.4874999523162842,-12.21500015258789,5.267499923706055
11.81192917717061,-0.1324919909238815,-0.9855159521102904,0.1844639927148819,1.8550000190734863,-11.532500267028809,4.882500171661377
11.832189776102291,-0.1261480003595352,-0.9747799634933472,0.1808039993047714,3.132499933242798,-10.482500076293944,4.619999885559082
11.852450375033973,-0.1224879994988441,-0.972827970981598,0.1705559939146042,2.677500009536743,-7.962500095367432,4.65500020980835
11.872710973965654,-0.1310279965400695,-0.9528200030326844,0.1729959994554519,2.345000028610229,-5.932499885559082,4.445000171661377
11.892971572897336,-0.1378600001335144,-0.9574559926986694,0.1688479930162429,-0.875,-4.8125,4.164999961853027
11.913232171829018,-0.1334680020809173,-0.9864919781684875,0.1864160001277923,-1.5575000047683716,-4.09499979019165,3.5350000858306885
11.933492770760699,-0.1324919909238815,-0.9906399846076964,0.1795839965343475,0.332500010728836,-3.237499952316284,3.150000095367432
11.95375336969238,-0.1378600001335144,-0.9925919771194458,0.1737279891967773,1.5575000047683716,-0.5600000023841858,3.255000114440918
11.974013968624062,-0.1478639990091323,-0.986735999584198,0.1722639948129654,2.870000123977661,0.6474999785423279,3.289999961853028
11.994274567555744,-0.1542080044746399,-0.969655990600586,0.1783639937639236,3.797500133514404,1.347499966621399,3.0450000762939453
12.014535166487425,-0.1615279912948608,-0.9528200030326844,0.1822679936885833,3.430000066757202,2.0999999046325684,2.6075000762939453
12.034795765419107,-0.1693359911441803,-0.9508680105209352,0.1829999983310699,1.5049999952316284,1.9774999618530276,2.275000095367432
12.055056364350788,-0.1712879985570907,-0.9542839527130128,0.1825120002031326,0.2100000083446502,1.715000033378601,2.117500066757202
12.07531696328247,-0.1703120023012161,-0.957211971282959,0.1905639916658401,-0.2450000047683715,1.6449999809265137,2.327500104904175
12.095577562214151,-0.1739719957113266,-0.9606279730796814,0.1971519887447357,-0.9975000023841858,1.7675000429153442,2.7300000190734863
12.115838161145833,-0.177387997508049,-0.9594079852104188,0.1947119981050491,-1.680000066757202,1.9424999952316284,2.817500114440918
12.136098760077514,-0.1708000004291534,-0.9574559926986694,0.1915400028228759,-2.362499952316284,1.3300000429153442,2.3975000381469727
12.156359359009196,-0.1598199903964996,-0.966484010219574,0.1861719936132431,-3.5350000858306885,0.8400000333786011,1.6100000143051147
12.176619957940877,-0.1561599969863891,-0.9757559895515442,0.1849519908428192,-4.059999942779541,0.9449999928474426,0.7524999976158142
12.196880556872559,-0.1593319922685623,-0.9791719913482666,0.1876360028982162,-3.815000057220459,1.1725000143051147,0.2100000083446502
12.21714115580424,-0.1627479940652847,-0.9801479578018188,0.1900759935379028,-3.150000095367432,1.190000057220459,-0.1574999988079071
12.237401754735922,-0.1637239903211593,-0.9791719913482666,0.1912959963083267,-1.8550000190734863,0.9800000190734864,-0.6474999785423279
12.257662353667603,-0.1622599959373474,-0.9757559895515442,0.1898320019245147,-0.262499988079071,0.612500011920929,-1.1375000476837158
12.277922952599285,-0.1647000014781952,-0.9677039980888368,0.1908079981803894,0.6825000047683716,0.6299999952316284,-1.2949999570846558
12.298183551530967,-0.1710439920425415,-0.9677039980888368,0.1939799934625625,0.5074999928474426,0.6474999785423279,-1.1024999618530271
12.318444150462648,-0.1705559939146042,-0.9677039980888368,0.1932480037212371,0.1749999970197677,0.4550000131130218,-0.5249999761581421
12.33870474939433,-0.1688479930162429,-0.9679479598999025,0.195932000875473,0.0525000020861625,0.4550000131130218,0.0525000020861625
12.358965348326011,-0.1654319912195205,-0.9677039980888368,0.1908079981803894,-0.1400000005960464,0.4025000035762787,0.2275000065565109
12.379225947257693,-0.1561599969863891,-0.9650200009346008,0.1883679926395416,-0.4550000131130218,0.9275000095367432,0.0700000002980232
12.399486546189374,-0.1566479951143264,-0.9633119702339172,0.1815359890460968,-0.7175000309944153,1.1200000047683716,-0.0350000001490116
12.419747145121056,-0.1586000025272369,-0.9620919823646544,0.1805599927902221,-1.0850000381469729,1.1549999713897705,-0.2450000047683715
12.440007744052737,-0.1571359932422638,-0.9637999534606934,0.183243989944458,-1.5225000381469729,1.399999976158142,-0.4200000166893005
12.460268342984419,-0.1542080044746399,-0.969655990600586,0.1820240020751953,-1.9774999618530276,2.012500047683716,-0.5074999928474426
12.4805289419161,-0.1507920026779174,-0.9716079831123352,0.1798280030488968,-1.8899999856948853,2.747499942779541,-0.6299999952316284
12.500789540847782,-0.1476199924945831,-0.9747799634933472,0.1798280030488968,-2.117500066757202,3.377500057220459,-0.7350000143051147
12.521050139779463,-0.1490840017795562,-0.977463960647583,0.1788519918918609,-1.924999952316284,3.815000057220459,-0.9975000023841858
12.541310738711145,-0.1503039896488189,-0.973315954208374,0.1764120012521743,-1.277500033378601,4.130000114440918,-1.2074999809265137
12.561571337642826,-0.1485960036516189,-0.9708759784698486,0.1771439909934997,-0.8224999904632568,4.550000190734863,-1.347499966621399
12.581831936574508,-0.1459119915962219,-0.9698999524116516,0.1803160011768341,-0.8575000166893005,5.074999809265137,-1.627500057220459
12.60209253550619,-0.1410319954156875,-0.9750239849090576,0.1778759956359863,-1.4175000190734863,5.635000228881836,-1.924999952316284
12.622353134437871,-0.1471319943666458,-0.9786840081214904,0.1771439909934997,-1.1375000476837158,6.40500020980835,-2.0299999713897705
12.642613733369553,-0.1559159904718399,-0.9755119681358336,0.1747040003538131,-0.612500011920929,6.877500057220459,-2.0824999809265137
12.662874332301234,-0.1600639969110489,-0.9718520045280457,0.1742160022258758,-0.332500010728836,7.052500247955322,-2.1524999141693115
12.683134931232916,-0.1576239913702011,-0.9745360016822816,0.171775996685028,-0.962499976158142,7.385000228881836,-2.1875
12.703395530164597,-0.1546960026025772,-0.9791719913482666,0.1710439920425415,-1.3825000524520874,7.699999809265137,-2.362499952316284
12.723656129096279,-0.1564040035009384,-0.9842959642410278,0.1686040014028549,-1.1375000476837158,7.927500247955322,-2.572499990463257
12.74391672802796,-0.1649439930915832,-0.9894199967384338,0.1664080023765564,-0.5425000190734863,8.172499656677246,-2.7300000190734863
12.764177326959642,-0.1686040014028549,-0.9882000088691713,0.1651879996061325,-0.0350000001490116,8.137499809265137,-2.5899999141693115
12.784437925891323,-0.167383998632431,-0.9845399856567384,0.1642120033502578,0.262499988079071,7.909999847412109,-1.995000004768372
12.804698524823005,-0.1683599948883056,-0.9808799624443054,0.1629920005798339,0.5425000190734863,7.875,-1.4175000190734863
12.824959123754686,-0.167383998632431,-0.9794159531593324,0.1627479940652847,0.7350000143051147,7.630000114440918,-1.2949999570846558
12.845219722686368,-0.167383998632431,-0.9730719923973083,0.1605519950389862,1.5049999952316284,7.349999904632568,-1.5399999618530271
12.86548032161805,-0.1720200031995773,-0.969655990600586,0.1566479951143264,1.4700000286102295,6.965000152587891,-2.0824999809265137
12.88574092054973,-0.1727519929409027,-0.9628239870071412,0.1505479961633682,1.0674999952316284,6.247499942779541,-2.380000114440918
12.906001519481412,-0.1737279891967773,-0.9552599787712096,0.1485960036516189,0.1749999970197677,5.704999923706055,-1.9075000286102293
12.926262118413094,-0.1722639948129654,-0.9603840112686156,0.1466439962387085,-1.2074999809265137,5.337500095367432,-1.4175000190734863
12.946522717344775,-0.1690919995307922,-0.96697199344635,0.1456679999828338,-1.5225000381469729,4.987500190734863,-1.2599999904632568
12.966783316276457,-0.1671399921178817,-0.975268006324768,0.1483519971370697,-1.5575000047683716,4.550000190734863,-1.4700000286102295
12.987043915208139,-0.1676279902458191,-0.9847840070724488,0.1461559981107711,-0.5950000286102295,3.6575000286102295,-2.0299999713897705
13.00730451413982,-0.1644559949636459,-0.9796599745750428,0.1510359942913055,0.262499988079071,3.3600001335144043,-2.065000057220459
13.027565113071502,-0.1607960015535354,-0.9720959663391112,0.1490840017795562,0.6825000047683716,3.622499942779541,-2.0999999046325684
13.047825712003183,-0.1605519950389862,-0.9672159552574158,0.1520119905471801,0.699999988079071,4.042500019073486,-1.9424999952316284
13.068086310934865,-0.1593319922685623,-0.9630680084228516,0.153231993317604,0.8575000166893005,4.112500190734863,-2.0299999713897705
13.088346909866546,-0.1576239913702011,-0.958187997341156,0.1515239924192428,1.1549999713897705,4.445000171661377,-2.1875
13.108607508798228,-0.153231993317604,-0.946720004081726,0.1525000035762787,1.3300000429153442,5.09250020980835,-2.0824999809265137
13.12886810772991,-0.1520119905471801,-0.9308599829673768,0.1542080044746399,0.6825000047683716,5.635000228881836,-1.837499976158142
13.14912870666159,-0.152988001704216,-0.9154880046844482,0.152988001704216,-0.9800000190734864,6.28249979019165,-1.7324999570846558
13.169389305593272,-0.1612839996814727,-0.9110959768295288,0.1568920016288757,-3.377500057220459,6.807499885559082,-1.715000033378601
13.189649904524954,-0.1576239913702011,-0.9306159615516664,0.1642120033502578,-6.579999923706055,7.630000114440918,-1.3300000429153442
13.209910503456635,-0.1459119915962219,-0.9642879962921144,0.1688479930162429,-9.100000381469728,9.5024995803833,-0.0350000001490116
13.230171102388317,-0.1393239945173263,-0.9838079810142516,0.1625040024518966,-9.274999618530272,11.532500267028809,1.0325000286102295
13.250431701319998,-0.1405439972877502,-0.9877119660377502,0.1549399942159652,-8.539999961853027,12.267499923706056,0.7875000238418579
13.27069230025168,-0.1539639979600906,-0.9738039970397948,0.1583559960126876,-8.329999923706055,11.952500343322754,-0.4200000166893005
13.290952899183361,-0.1722639948129654,-0.9821000099182128,0.1525000035762787,-9.852499961853027,11.77750015258789,-1.784999966621399
13.311213498115043,-0.1620160043239593,-0.9911279678344728,0.1600639969110489,-10.587499618530272,12.057499885559082,-2.047499895095825
13.331474097046724,-0.1544519960880279,-0.9974719882011414,0.143227994441986,-10.1850004196167,12.61750030517578,-1.1200000047683716
13.351734695978406,-0.1520119905471801,-0.994055986404419,0.1266359984874725,-7.980000019073486,13.63249969482422,-0.2975000143051147
13.371995294910088,-0.1461559981107711,-0.9842959642410278,0.1202920004725456,-6.579999923706055,13.369999885559082,-0.8050000071525574
13.392255893841769,-0.147376000881195,-0.9801479578018188,0.1422519981861114,-7.402500152587891,12.057499885559082,-2.6424999237060547
13.41251649277345,-0.1578679978847503,-0.9967399835586548,0.1620160043239593,-9.274999618530272,10.640000343322754,-4.917500019073486
13.432777091705132,-0.1556719988584518,-1.0043039321899414,0.1720200031995773,-7.752500057220459,9.274999618530272,-6.195000171661377
13.453037690636814,-0.1566479951143264,-1.0011320114135742,0.1600639969110489,-3.990000009536743,8.154999732971191,-5.792500019073486
13.473298289568495,-0.1315159946680069,-0.9601399898529052,0.1649439930915832,0.9800000190734864,6.894999980926514,-4.952499866485596
13.493558888500177,-0.1278560012578964,-0.9293959736824036,0.1693359911441803,-0.1050000041723251,6.107500076293945,-3.8324999809265137
13.513819487431858,-0.1434720009565353,-0.9220759868621826,0.171775996685028,-4.987500190734863,6.300000190734863,-3.797500133514404
13.53408008636354,-0.1424959897994995,-0.9235399961471558,0.1693359911441803,-9.274999618530272,5.284999847412109,-3.815000057220459
13.554340685295221,-0.1268799901008606,-0.9469639658927916,0.1651879996061325,-13.19499969482422,4.340000152587891,-2.327500104904175
13.574601284226903,-0.1083360016345977,-0.9611159563064576,0.1654319912195205,-14.087499618530272,5.949999809265137,-0.6474999785423279
13.594861883158584,-0.0978439971804618,-0.9657520055770874,0.1229759976267814,-15.015000343322754,9.782500267028809,0.1574999988079071
13.615122482090266,-0.0985759943723678,-0.9767319560050964,0.1115079969167709,-16.572500228881836,11.567500114440918,0.2100000083446502
13.635383081021947,-0.1076039969921112,-0.9913719892501832,0.1180959939956665,-17.954999923706055,12.232500076293944,0.5950000286102295
13.655643679953629,-0.1110199987888336,-1.0067440271377563,0.1390800029039383,-18.09499931335449,12.145000457763672,0.6650000214576721
13.67590427888531,-0.1154119968414306,-1.0062559843063354,0.153231993317604,-16.22249984741211,12.197500228881836,0.1050000041723251
13.696164877816992,-0.1134599968791008,-0.9969840049743652,0.1446920037269592,-12.897500038146973,12.65250015258789,-0.5249999761581421
13.716425476748674,-0.0971119999885559,-0.9674599766731262,0.1324919909238815,-9.22249984741211,13.737500190734863,-0.612500011920929
13.736686075680355,-0.075883999466896,-0.9386679530143738,0.1171199977397918,-9.0649995803833,15.627500534057615,0.1749999970197677
13.756946674612037,-0.0570959970355033,-0.9357399940490724,0.1122400015592575,-12.267499923706056,18.655000686645508,1.2599999904632568
13.777207273543718,-0.0583159998059272,-0.94159597158432,0.1139479950070381,-16.747499465942383,21.2450008392334,1.680000066757202
13.7974678724754,-0.0685639977455139,-0.9506239891052246,0.1315159946680069,-20.212499618530277,23.1875,0.7875000238418579
13.817728471407081,-0.066611997783184,-0.9694119691848756,0.1317600011825561,-21.90999984741211,25.059999465942383,-0.4900000095367431
13.837989070338763,-0.05197199806571,-0.9620919823646544,0.1310279965400695,-19.02250099182129,28.542499542236328,-1.1549999713897705
13.858249669270444,-0.0324519984424114,-0.946720004081726,0.1173639968037605,-15.81999969482422,33.07500076293945,-1.347499966621399
13.878510268202126,0.0107359997928142,-0.929152011871338,0.0968680009245872,-13.49250030517578,39.27000045776367,-1.5049999952316284
13.898770867133807,0.0424560010433197,-0.9191479682922364,0.0719799995422363,-14.279999732971191,47.98500061035156,-2.047499895095825
13.919031466065489,0.0178119987249374,-0.9235399961471558,0.0492879971861839,-16.415000915527344,56.85750198364258,-3.587500095367432
13.93929206499717,0.0261080004274845,-0.9225639700889589,0.0749079957604408,-15.837499618530272,61.67000198364258,-5.53000020980835
13.959552663928852,0.0229359995573759,-0.9250040054321288,0.1049199998378753,-15.557499885559082,64.55750274658203,-8.27750015258789
13.979813262860533,-0.0139079997316002,-0.9308599829673768,0.1368840038776397,-14.192500114440918,66.65750122070312,-14.03499984741211
14.000073861792215,-0.0363559983670711,-0.9252479672431946,0.1024799942970275,-11.917500495910645,68.02249908447266,-21.087499618530277
14.020334460723896,-0.0348920002579689,-0.9018239974975586,0.0668559968471527,-7.175000190734863,71.52249908447266,-25.82999992370605
14.040595059655578,-0.0588039979338645,-0.8710799813270569,0.0268399994820356,-7.315000057220459,73.74500274658203,-26.25
14.06085565858726,-0.1010159999132156,-0.8435080051422119,0.0117119997739791,-15.68000030517578,74.19999694824219,-22.90749931335449
14.081116257518941,-0.1991039961576461,-0.8613199591636658,0.0495319999754428,-18.059999465942383,77.99749755859375,-21.052499771118164
14.101376856450623,-0.2571759819984436,-0.8339920043945312,0.1227319985628128,-10.8149995803833,78.10250091552734,-24.377500534057617
14.121637455382304,-0.2496119886636734,-0.8159359693527222,0.1761679947376251,-2.8350000381469727,73.5875015258789,-30.502500534057617
14.141898054313986,-0.2278959900140762,-0.794219970703125,0.1988599896430969,5.074999809265137,68.80999755859375,-38.727500915527344
14.162158653245667,-0.1822679936885833,-0.7302919626235962,0.1280999928712844,5.372499942779541,62.352500915527344,-45.92000198364258
14.182419252177349,-0.1629920005798339,-0.6519680023193359,0.0668559968471527,-0.6825000047683716,55.82500076293945,-48.42250061035156
14.20267985110903,-0.1371279954910278,-0.5299679636955261,0.1915400028228759,-12.337499618530272,51.625,-45.60499954223633
14.222940450040712,-0.1468880027532577,-0.5233799815177917,0.1761679947376251,-22.399999618530277,58.09999847412109,-46.79500198364258
14.243201048972393,-0.1410319954156875,-0.5321639776229858,0.1000399962067604,-26.75749969482422,56.42000198364258,-50.837501525878906
14.263461647904075,-0.1056519970297813,-0.4928799867630005,0.0187879987061023,-25.74250030517578,48.755001068115234,-56.17499923706055
14.283722246835756,-0.1000399962067604,-0.4218759834766388,-0.0480679981410503,-29.27750015258789,44.50249862670898,-60.91749954223633
14.303982845767438,-0.0868639945983886,-0.3982079923152923,-0.0971119999885559,-44.5724983215332,38.16749954223633,-63.27999877929688
14.32424344469912,-0.1259039938449859,-0.500931978225708,-0.0844239965081214,-60.584999084472656,28.752500534057617,-65.39749908447266
14.344504043630801,-0.0927200019359588,-0.6468439698219299,-0.1849519908428192,-82.23249816894531,17.727500915527344,-69.49250030517578
14.364764642562482,-0.1039439961314201,-0.6844199895858765,-0.2915799915790558,-87.0625,20.107500076293945,-72.37999725341797
14.385025241494164,-0.0375759974122047,-0.5931639671325684,-0.2627879977226257,-85.34750366210938,22.71500015258789,-76.49250030517578
14.405285840425845,0.0705159977078437,-0.5158159732818604,-0.3003639876842499,-109.0425033569336,15.71500015258789,-86.67749786376953
14.425546439357527,0.2066679894924163,-0.5448520183563232,-0.4618919789791107,-156.3800048828125,17.622499465942383,-94.27249908447266
14.445807038289209,0.3403799831867218,-0.5177679657936096,-0.4709199965000152,-174.16000366210938,45.5525016784668,-92.8375015258789
14.46606763722089,0.3223240077495575,-0.4318799972534179,-0.3215920031070709,-182.0874938964844,66.51750183105469,-93.02999877929688
14.486328236152572,0.3572160005569458,-0.537775993347168,-0.0624639987945556,-216.68499755859372,63.61249923706055,-86.16999816894531
14.506588835084253,0.77811598777771,-1.0030839443206787,0.4282200038433075,-249.4275054931641,77.7874984741211,-68.45999908447266
14.526849434015935,1.4703439474105835,-0.6888119578361511,-4.012092113494873,-375.3399963378906,-145.58250427246094,-55.91249847412109
14.547110032947616,0.2544919848442077,0.4706760048866272,0.8844999670982361,-140.6649932861328,32.23500061035156,-130.91749572753906
14.567370631879298,1.0777479410171509,0.0919879972934722,-1.3068640232086182,-333.69000244140625,181.40499877929688,-138.96749877929688
14.58763123081098,1.0228480100631714,-0.0675880014896392,-2.644471883773804,-247.58999633789065,102.14749908447266,-115.95500183105467
14.60789182974266,1.0987319946289062,-0.90475195646286,-2.7679359912872314,-199.7624969482422,6.352499961853027,-90.3000030517578
14.628152428674342,1.6726199388504028,-0.7998319864273071,-2.8040480613708496,-182.10499572753903,-61.61750030517578,-54.51250076293945
14.648413027606024,1.4330120086669922,-0.7473719716072083,-2.6456918716430664,-170.34500122070312,-58.92250061035156,-31.674999237060547
14.668673626537705,1.0440759658813477,-0.3120760023593902,-2.2862799167633057,-189.15750122070312,-27.93000030517578,-22.732500076293945
14.688934225469387,0.7444440126419067,-0.7061359882354736,-1.977131962776184,-195.9300079345703,-36.66249847412109,-16.8174991607666
14.709194824401068,0.6717320084571838,-0.3606320023536682,-1.3773800134658811,-62.43999862670898,-53.497501373291016,7.577499866485596
14.72945542333275,0.640500009059906,-0.3098799884319305,-0.9994239807128906,3.377500057220459,-36.66249847412109,-32.217498779296875
14.749716022264431,0.5245999693870544,0.0024399999529123,-0.5231360197067261,27.299999237060547,-48.49250030517578,-75.44249725341797
14.769976621196113,0.5577839612960815,0.1544519960880279,-0.6251279711723328,10.587499618530272,-39.11249923706055,-117.91500091552734
14.790237220127795,0.6497719883918762,0.2030079960823059,-0.8122760057449341,8.417500495910645,-36.505001068115234,-122.69249725341795
14.810497819059476,0.2274079918861389,0.0243999995291233,-0.440420001745224,66.4124984741211,28.420000076293945,-43.24250030517578
14.830758417991158,0.2210640013217926,-0.002195999957621,-0.4152880012989044,66.30750274658203,39.04249954223633,-39.900001525878906
14.851019016922839,0.0929640009999275,0.0585599988698959,-0.3523359894752502,83.33499908447266,68.5824966430664,-34.0724983215332
14.87127961585452,0.0448959991335868,0.2400960028171539,-0.4487159848213196,80.29000091552734,41.212501525878906,-45.48250198364258
14.891540214786202,0.114436000585556,0.3364759981632232,-0.6195160150527954,63.962501525878906,20.49250030517578,-51.02999877929688
14.911800813717884,0.0983319953083992,0.4206559956073761,-0.7529839873313904,52.290000915527344,23.362499237060547,-40.11000061035156
14.932061412649565,0.1466439962387085,0.2205759882926941,-0.5658360123634338,25.217500686645508,31.149999618530277,-14.5600004196167
14.952322011581247,0.3362320065498352,0.0746639966964721,-0.6165879964828491,15.487500190734863,32.54999923706055,2.2049999237060547
14.972582610512928,0.3762480020523071,0.1822679936885833,-0.7420039772987366,28.80500030517578,36.3125,1.662500023841858
14.99284320944461,0.3498959839344024,0.1395680010318756,-0.9193919897079468,34.5099983215332,32.900001525878906,6.492499828338623
15.013103808376291,0.3364759981632232,0.1322479993104934,-0.9708759784698486,53.00749969482422,33.25,5.565000057220459
15.033364407307973,0.2508319914340973,0.1751919984817505,-1.079699993133545,60.04249954223633,25.1825008392334,0.699999988079071
15.053625006239654,0.2749879956245422,0.240339994430542,-1.1067839860916138,60.91749954223633,16.502500534057617,-5.127500057220459
15.073885605171336,0.4023559987545013,0.2283839881420135,-1.1067839860916138,54.75749969482422,5.477499961853027,-4.777500152587891
15.094146204103017,0.506056010723114,0.1241960003972053,-1.1319159269332886,47.057498931884766,0.0700000002980232,5.40749979019165
15.114406803034699,0.5902360081672668,0.0468479990959167,-1.1260600090026855,38.81499862670898,0.9975000023841858,16.362499237060547
15.13466740196638,0.663923978805542,-0.1951999962329864,-1.087019920349121,34.10750198364258,2.5374999046325684,19.424999237060547
15.154928000898062,0.5180119872093201,-0.2237479984760284,-0.981611967086792,48.282501220703125,-0.1924999952316284,15.81999969482422
15.175188599829744,0.5045920014381409,-0.1517679989337921,-0.9703879952430724,49.560001373291016,-8.592499732971191,7.647500038146973
15.195449198761425,0.4794600009918213,-0.2042279988527298,-0.9306159615516664,43.64500045776367,-7.454999923706055,0.3499999940395355
15.215709797693107,0.4855599999427795,-0.2464399933815002,-0.8688839673995972,34.807498931884766,4.917500019073486,-7.227499961853027
15.235970396624788,0.4572559893131256,-0.1900759935379028,-0.8730319738388062,14.787500381469728,14.244999885559082,-6.789999961853027
15.25623099555647,0.4987359941005707,-0.2725479900836944,-0.9013359546661376,-4.8125,23.4325008392334,0.2975000143051147
15.276491594488151,0.493611991405487,-0.2305800020694732,-0.823743999004364,-8.662500381469727,39.8125,24.552499771118164
15.296752193419833,0.4047960042953491,-0.3484320044517517,-0.7288280129432678,-15.78499984741211,45.32500076293945,51.76499938964844
15.317012792351514,0.4440799951553345,-0.3162239789962768,-0.6919839978218079,-32.91749954223633,32.67250061035156,48.47499847412109
15.337273391283196,0.4311479926109314,-0.334524005651474,-0.7576199769973755,-32.970001220703125,18.5674991607666,35.157501220703125
15.357533990214877,0.4387120008468628,-0.2771840095520019,-0.7915359735488892,-22.32999992370605,12.914999961853027,22.1200008392334
15.377794589146559,0.4572559893131256,-0.2901159822940826,-0.8139839768409729,-18.427499771118164,13.755000114440918,12.984999656677246
15.39805518807824,0.4445679783821106,-0.3030479848384857,-0.8410679697990417,-13.947500228881836,17.325000762939453,8.452500343322754
15.418315787009922,0.4736039936542511,-0.3025600016117096,-0.826915979385376,-22.399999618530277,25.690000534057617,7.542500019073486
15.438576385941603,0.4840959906578064,-0.3352559804916382,-0.8537560105323792,-19.600000381469727,26.530000686645508,8.71500015258789
15.458836984873285,0.5158159732818604,-0.3052439987659454,-0.8664439916610718,-11.199999809265137,26.54750061035156,2.694999933242798
15.479097583804966,0.5397279858589172,-0.280599981546402,-0.8720560073852539,-4.340000152587891,29.81999969482422,-3.884999990463257
15.499358182736648,0.5509520173072815,-0.2557120025157928,-0.8796199560165405,-3.0625,33.442501068115234,-8.172499656677246
15.51961878166833,0.5533919930458069,-0.23887600004673,-0.8657119870185852,-4.619999885559082,38.39500045776367,-8.890000343322754
15.539879380600011,0.5555880069732666,-0.2374119907617569,-0.8478999733924866,-6.894999980926514,42.06999969482422,-9.520000457763672
15.560139979531693,0.583404004573822,-0.2408279925584793,-0.8200839757919312,-3.150000095367432,42.27999877929688,-16.082500457763672
15.580400578463374,0.5904799699783325,-0.1871479898691177,-0.7734799981117249,3.447499990463257,44.06499862670898,-19.38999938964844
15.600661177395056,0.6158559918403625,-0.2130119949579239,-0.7585960030555725,11.024999618530272,44.11750030517578,-19.89750099182129
15.620921776326737,0.6182959675788879,-0.1993480026721954,-0.7542039752006531,17.237499237060547,43.3125,-15.802499771118164
15.641182375258419,0.6505039930343628,0.0841799974441528,-0.669048011302948,20.8075008392334,46.21749877929688,-9.957500457763672
15.6614429741901,0.5846239924430847,-0.2357039898633957,-0.7119919657707214,18.795000076293945,33.092498779296875,36.907501220703125
15.681703573121782,0.5794999599456787,-0.3630719780921936,-0.6968640089035034,1.4524999856948853,25.917499542236328,45.81499862670898
15.701964172053463,0.6295199990272522,-0.2432679980993271,-0.7049160003662109,0.4375,25.497499465942383,15.085000038146973
15.722224770985145,0.6319599747657776,-0.1978839933872223,-0.6204919815063477,-11.88249969482422,38.81499862670898,12.28499984741211
15.742485369916826,0.6731959581375122,-0.2823079824447632,-0.7502999901771545,-18.795000076293945,28.875,14.105000495910645
15.762745968848508,0.6822239756584167,-0.2654719948768616,-0.7451759576797485,-2.817500114440918,41.685001373291016,3.867500066757202
15.78300656778019,0.6644119620323181,-0.2840159833431244,-0.6895439624786377,8.592499732971191,48.317501068115234,-7.735000133514404
15.803267166711871,0.6702679991722107,-0.289139986038208,-0.7032079696655273,23.69499969482422,38.37749862670898,-18.32250022888184
15.823527765643552,0.6939359903335571,-0.2766959965229034,-0.6456239819526672,31.552499771118164,32.40999984741211,-14.752500534057615
15.843788364575234,0.7180919647216797,-0.2703520059585571,-0.6285439729690552,35.13999938964844,20.299999237060547,-13.912500381469728
15.864048963506916,0.7217519879341125,-0.2630319893360138,-0.6636799573898315,25.58500099182129,15.34749984741211,-15.732500076293944
15.884309562438597,0.7224839925765991,-0.2398519963026046,-0.6790519952774048,14.262499809265137,13.440000534057615,-10.727499961853027
15.904570161370279,0.732975959777832,-0.2757200002670288,-0.6429399847984314,5.127500057220459,11.829999923706056,-7.105000019073486
15.92483076030196,0.7332199811935425,-0.2644959986209869,-0.6617279648780823,9.170000076293944,11.725000381469728,-4.567500114440918
15.945091359233642,0.7361479997634888,-0.2657159864902496,-0.6580680012702942,7.997499942779541,13.947500228881836,-3.447499990463257
15.965351958165323,0.7283399701118469,-0.260591983795166,-0.632203996181488,4.865000247955322,15.522500038146973,-3.0274999141693115
15.985612557097005,0.7256559729576111,-0.2662039995193481,-0.6143919825553894,4.427500247955322,16.065000534057617,-3.587500095367432
16.005873156028688,0.7244359850883484,-0.2644959986209869,-0.6058520078659058,5.197500228881836,15.81999969482422,-3.884999990463257
16.02613375496037,0.7239480018615723,-0.2662039995193481,-0.6019479632377625,5.197500228881836,13.755000114440918,-4.042500019073486
16.04639435389205,0.7298039793968201,-0.2542479932308197,-0.6095119714736938,5.389999866485596,12.074999809265137,-4.182499885559082
16.066654952823733,0.729315996170044,-0.257420003414154,-0.5968239903450012,3.797500133514404,11.130000114440918,-4.042500019073486
16.086915551755414,0.7207759618759155,-0.2544919848442077,-0.5931639671325684,2.047499895095825,8.75,-4.269999980926514
16.107176150687096,0.7322440147399902,-0.2657159864902496,-0.5926759839057922,1.0850000381469729,2.275000095367432,-6.230000019073486
16.127436749618777,0.7290719747543335,-0.2664479911327362,-0.5851119756698608,-0.2100000083446502,0.7875000238418579,-4.025000095367432
16.14769734855046,0.7215079665184021,-0.2537599802017212,-0.5809639692306519,0.9800000190734864,-4.340000152587891,-3.849999904632568
16.16795794748214,0.7637199759483337,-0.2720600068569183,-0.6075599789619446,2.117500066757202,-7.682499885559082,-4.934999942779541
16.18821854641382,0.7434679865837097,-0.2520520091056824,-0.5885279774665833,2.345000028610229,-6.335000038146973,-5.932499885559082
16.208479145345503,0.7446879744529724,-0.2566879987716675,-0.5987759828567505,2.309999942779541,-8.819999694824219,-5.582499980926514
16.228739744277185,0.7583519816398621,-0.2781600058078766,-0.5978000164031982,1.5049999952316284,-10.46500015258789,-5.740000247955322
16.249000343208866,0.7383440136909485,-0.2537599802017212,-0.5887719988822937,1.5225000381469729,-10.289999961853027,-2.799999952316284
16.269260942140548,0.7400519847869873,-0.2508319914340973,-0.5904799699783325,1.8550000190734863,-13.49250030517578,-1.5575000047683716
16.28952154107223,0.7478600144386292,-0.2515639960765838,-0.6173200011253357,3.640000104904175,-16.975000381469727,-0.7524999976158142
16.30978214000391,0.7427359819412231,-0.2522960007190704,-0.6319599747657776,5.162499904632568,-18.375,0.2100000083446502
16.330042738935592,0.7368800044059753,-0.249123990535736,-0.6434279680252075,5.477499961853027,-18.024999618530277,-0.0175000000745058
16.350303337867274,0.7315120100975037,-0.2498559951782226,-0.663923978805542,4.8125,-16.782499313354492,0.4900000095367431
16.370563936798955,0.7283399701118469,-0.228872001171112,-0.7010120153427124,-9.082500457763672,-17.010000228881836,-0.2800000011920929
16.390824535730637,0.70442795753479,-0.2608360052108764,-0.6475759744644165,-26.512500762939453,-11.585000038146973,0.6474999785423279
16.41108513466232,0.7034519910812378,-0.264739990234375,-0.6568480134010315,-17.447500228881836,-16.065000534057617,-0.0175000000745058
16.431345733594,0.6910079717636108,-0.2571759819984436,-0.6483079791069031,-3.954999923706055,-15.627500534057615,-0.4375
16.45160633252568,0.6812480092048645,-0.2435119897127151,-0.6629480123519897,-3.447499990463257,-18.287500381469727,-2.555000066757202
16.471866931457363,0.6802719831466675,-0.2396079897880554,-0.6641680002212524,-5.302500247955322,-20.177499771118164,-3.255000114440918
16.492127530389045,0.6914960145950317,-0.2522960007190704,-0.6878359913825989,-5.827499866485596,-21.332500457763672,-3.640000104904175
16.512388129320726,0.6946679949760437,-0.2442439943552017,-0.6995480060577393,-6.002500057220459,-19.477500915527344,-4.147500038146973
16.532648728252408,0.6927160024642944,-0.2474159896373748,-0.7058919668197632,-5.057499885559082,-18.024999618530277,-3.954999923706055
16.55290932718409,0.6914960145950317,-0.2405840009450912,-0.7151640057563782,-3.202500104904175,-16.83500099182129,-3.867500066757202
16.57316992611577,0.6856399774551392,-0.2449759989976883,-0.7102839946746826,-2.117500066757202,-14.052499771118164,-3.7100000381469727
16.593430525047452,0.6832000017166138,-0.2391199916601181,-0.713699996471405,-0.7175000309944153,-13.59749984741211,-3.745000123977661
16.613691123979134,0.6741719841957092,-0.2439999878406524,-0.7266319990158081,-1.7675000429153442,-13.404999732971191,-4.497499942779541
16.633951722910815,0.6736840009689331,-0.2322880029678344,-0.7346839904785156,-0.1050000041723251,-12.512499809265137,-6.440000057220459
16.654212321842497,0.6731959581375122,-0.2374119907617569,-0.7363919615745544,0.332500010728836,-10.482500076293944,-6.5625
16.67447292077418,0.6697800159454346,-0.2354599982500076,-0.7344399690628052,2.677500009536743,-8.522500038146973,-5.985000133514404
16.69473351970586,0.6656320095062256,-0.2237479984760284,-0.7280960083007812,4.480000019073486,-6.440000057220459,-5.284999847412109
16.71499411863754,0.6658759713172913,-0.2200879901647567,-0.7239480018615723,4.637499809265137,-4.235000133514404,-4.497499942779541
16.735254717569223,0.6658759713172913,-0.2095959931612014,-0.7222399711608887,3.954999923706055,-1.4350000619888306,-3.990000009536743
16.755515316500905,0.6595320105552673,-0.2098399996757507,-0.7237039804458618,1.3300000429153442,0.9449999928474426,-4.09499979019165
16.775775915432586,0.6561160087585449,-0.2154520004987716,-0.7278519868850708,-0.6474999785423279,2.0824999809265137,-4.462500095367432
16.796036514364268,0.6519680023193359,-0.2210640013217926,-0.7134559750556946,-1.3125,2.870000123977661,-3.7274999618530273
16.81629711329595,0.6536759734153748,-0.2205759882926941,-0.7027199864387512,-0.7350000143051147,2.2225000858306885,-2.6600000858306885
16.83655771222763,0.6631919741630554,-0.2137439996004104,-0.7190679907798767,0.2275000065565109,0.612500011920929,-1.0499999523162842
16.856818311159312,0.6746599674224854,-0.2237479984760284,-0.7315120100975037,1.6974999904632568,2.012500047683716,-0.1924999952316284
16.877078910090994,0.6734399795532227,-0.2342399954795837,-0.7471280097961426,4.199999809265137,4.707499980926514,0.332500010728836
16.897339509022675,0.6753919720649719,-0.2327760010957718,-0.7363919615745544,6.579999923706055,8.470000267028809,0.4200000166893005
16.917600107954357,0.6729519963264465,-0.228872001171112,-0.7207759618759155,7.787499904632568,9.7475004196167,0.612500011920929
16.93786070688604,0.6744160056114197,-0.2300919890403747,-0.7158960103988647,7.454999923706055,10.3774995803833,0.5774999856948853
16.95812130581772,0.6807599663734436,-0.2352159917354583,-0.708575963973999,6.965000152587891,11.637499809265137,-0.1749999970197677
16.9783819047494,0.6836879849433899,-0.2342399954795837,-0.7078439593315125,5.670000076293945,12.005000114440918,-0.5774999856948853
16.998642503681083,0.6861279606819153,-0.2286279946565628,-0.7058919668197632,3.9375,13.982500076293944,-0.7875000238418579
17.018903102612764,0.6824679970741272,-0.2427799999713897,-0.6910079717636108,2.6424999237060547,17.989999771118164,1.837499976158142
17.039163701544446,0.688323974609375,-0.2325319945812225,-0.6922279596328735,0.875,14.94499969482422,0.0350000001490116
17.059424300476127,0.6905199885368347,-0.2410719990730285,-0.6792960166931152,1.1725000143051147,14.50749969482422,-0.1924999952316284
17.07968489940781,0.6885679960250854,-0.2383880019187927,-0.6731959581375122,4.550000190734863,13.387499809265137,-0.7350000143051147
17.09994549833949,0.6929599642753601,-0.2381439954042434,-0.6714879870414734,6.422500133514404,11.952500343322754,-1.6449999809265137
17.120206097271172,0.6907640099525452,-0.2520520091056824,-0.6844199895858765,7.927500247955322,10.13249969482422,-1.8200000524520876
17.140466696202854,0.7022320032119751,-0.249123990535736,-0.6871039867401123,15.75,6.877500057220459,-3.132499933242798
17.160727295134535,0.721019983291626,-0.2308239936828613,-0.6778320074081421,19.8799991607666,7.472499847412109,-2.9049999713897705
17.180987894066217,0.7039399743080139,-0.224723994731903,-0.680027961730957,11.619999885559082,10.412500381469728,-1.2424999475479126
17.201248492997898,0.700767993927002,-0.244731992483139,-0.6451359987258911,0.0350000001490116,11.899999618530272,-1.6100000143051147
17.22150909192958,0.721996009349823,-0.2422920018434524,-0.6741719841957092,3.115000009536743,11.217499732971191,-0.8050000071525574
17.24176969086126,0.7185800075531006,-0.2405840009450912,-0.66075199842453,3.552500009536743,13.177499771118164,-0.0525000020861625
17.262030289792943,0.721019983291626,-0.248879998922348,-0.6466000080108643,0.5249999761581421,13.317500114440918,-2.275000095367432
17.282290888724624,0.7280960083007812,-0.2449759989976883,-0.6470879912376404,1.1549999713897705,13.142499923706056,-1.3125
17.302551487656306,0.7349280118942261,-0.2427799999713897,-0.6473320126533508,0.2975000143051147,14.50749969482422,-0.4200000166893005
17.322812086587987,0.7310239672660828,-0.2503440082073211,-0.6353759765625,0.1400000005960464,15.767499923706056,-0.4375
17.34307268551967,0.7305359840393066,-0.2510759830474853,-0.6246399879455566,0.8050000071525574,15.697500228881836,-1.1024999618530271
17.36333328445135,0.7351719737052917,-0.2510759830474853,-0.6339119672775269,0.9449999928474426,14.36750030517578,-1.4700000286102295
17.383593883383032,0.7378559708595276,-0.2476599961519241,-0.6383039951324463,-1.6974999904632568,14.0,-2.134999990463257
17.403854482314713,0.742247998714447,-0.2396079897880554,-0.6278119683265686,-2.0824999809265137,13.982500076293944,-2.0824999809265137
17.424115081246395,0.7410280108451843,-0.23887600004673,-0.6224439740180969,-1.225000023841858,14.50749969482422,-1.2599999904632568
17.444375680178076,0.7388319969177246,-0.2432679980993271,-0.6082919836044312,-1.784999966621399,14.577500343322754,-0.7175000309944153
17.464636279109758,0.7415159940719604,-0.2535159885883331,-0.6060959696769714,-1.715000033378601,13.19499969482422,-0.6474999785423279
17.48489687804144,0.7461519837379456,-0.2505879998207092,-0.6065840125083923,-0.1749999970197677,11.357500076293944,-1.2599999904632568
17.50515747697312,0.7546919584274292,-0.2427799999713897,-0.5978000164031982,0.8224999904632568,10.605000495910645,-1.8899999856948853
17.525418075904803,0.7542039752006531,-0.2386319935321808,-0.594871997833252,1.75,10.202500343322754,-1.6449999809265137
17.545678674836484,0.7556679844856262,-0.2381439954042434,-0.5987759828567505,2.5374999046325684,9.537500381469728,-1.2424999475479126
17.565939273768166,0.7576199769973755,-0.23887600004673,-0.5965799689292908,2.450000047683716,8.837499618530273,-0.9449999928474426
17.586199872699847,0.7639639973640442,-0.2398519963026046,-0.5887719988822937,2.2225000858306885,7.769999980926514,-0.7524999976158142
17.60646047163153,0.7710399627685547,-0.2408279925584793,-0.5812079906463623,2.0299999713897705,7.0,-0.7350000143051147
17.62672107056321,0.7737239599227905,-0.2413159906864166,-0.5838919878005981,2.240000009536743,5.670000076293945,-0.9100000262260436
17.64698166949489,0.7764079570770264,-0.2369239926338195,-0.5943840146064758,1.8025000095367432,4.409999847412109,-1.0149999856948853
17.667242268426573,0.7805559635162354,-0.2405840009450912,-0.5951159596443176,-0.0525000020861625,3.762500047683716,-0.6825000047683716
17.687502867358255,0.7766519784927368,-0.2439999878406524,-0.5958479642868042,0.0175000000745058,3.762500047683716,-0.0874999985098838
17.707763466289936,0.774944007396698,-0.2479040026664734,-0.5946279764175415,0.5600000023841858,3.674999952316284,0.262499988079071
17.728024065221618,0.7710399627685547,-0.2493679970502853,-0.5882840156555176,0.8050000071525574,3.430000066757202,0.0700000002980232
17.7482846641533,0.7683559656143188,-0.2454639971256256,-0.5807200074195862,0.7699999809265137,2.712500095367432,-0.6474999785423279
17.76854526308498,0.7678679823875427,-0.2413159906864166,-0.5799880027770996,-0.0175000000745058,1.5225000381469729,-1.1024999618530271
17.788805862016662,0.7683559656143188,-0.2427799999713897,-0.583404004573822,-0.9100000262260436,0.5074999928474426,-1.1725000143051147
17.809066460948344,0.7688440084457397,-0.2481479942798614,-0.586575984954834,-1.2074999809265137,-0.3149999976158142,-1.3125
17.829327059880026,0.7729920148849487,-0.2459519952535629,-0.5899919867515564,0.0525000020861625,-1.4175000190734863,-1.4700000286102295
17.849587658811707,0.7729920148849487,-0.2425359934568405,-0.5926759839057922,0.4900000095367431,-1.8899999856948853,-1.2599999904632568
17.86984825774339,0.7693319916725159,-0.2464399933815002,-0.5946279764175415,0.6299999952316284,-1.3650000095367432,-1.0674999952316284
17.89010885667507,0.7695760130882263,-0.2439999878406524,-0.5899919867515564,1.2074999809265137,-1.4350000619888306,-1.3300000429153442
17.91036945560675,0.7712839841842651,-0.2435119897127151,-0.5851119756698608,1.347499966621399,-2.362499952316284,-1.627500057220459
17.930630054538433,0.7720159888267517,-0.2383880019187927,-0.5904799699783325,1.8025000095367432,-3.4825000762939453,-1.680000066757202
17.950890653470115,0.7710399627685547,-0.2332639992237091,-0.5970680117607117,1.4700000286102295,-4.550000190734863,-1.0149999856948853
17.971151252401796,0.7712839841842651,-0.2364359945058822,-0.5953599810600281,0.0700000002980232,-5.039999961853027,-0.0874999985098838
17.991411851333478,0.7720159888267517,-0.2376559972763061,-0.5973119735717773,0.4375,-5.547500133514404,0.2975000143051147
18.01167245026516,0.7722600102424622,-0.2386319935321808,-0.602679967880249,0.875,-5.932499885559082,0.4550000131130218
18.03193304919684,0.7715280055999756,-0.23887600004673,-0.6097559928894043,0.875,-5.880000114440918,0.7350000143051147
18.052193648128522,0.7661600112915039,-0.2418039888143539,-0.6092680096626282,0.6650000214576721,-5.162499904632568,0.875
18.072454247060204,0.762499988079071,-0.2437559962272644,-0.6107319593429565,0.5600000023841858,-4.585000038146973,0.6650000214576721
18.092714845991885,0.762499988079071,-0.2442439943552017,-0.6090239882469177,0.4900000095367431,-4.182499885559082,0.4550000131130218
18.112975444923567,0.7598159909248352,-0.2430239915847778,-0.6063399910926819,0.5774999856948853,-3.797500133514404,0.3675000071525574
18.13323604385525,0.7578639984130859,-0.2420479953289032,-0.607804000377655,0.6825000047683716,-3.569999933242798,0.4200000166893005
18.15349664278693,0.7568879723548889,-0.2457079887390136,-0.614147961139679,0.7524999976158142,-3.5,0.4375
18.17375724171861,0.7585960030555725,-0.2479040026664734,-0.616100013256073,0.7524999976158142,-3.132499933242798,0.3499999940395355
18.194017840650293,0.7588399648666382,-0.2481479942798614,-0.6173200011253357,0.6299999952316284,-2.555000066757202,0.1924999952316284
18.214278439581975,0.7590839862823486,-0.2459519952535629,-0.6204919815063477,-0.0700000002980232,-1.6974999904632568,-0.1924999952316284
18.234539038513656,0.7598159909248352,-0.2461960017681121,-0.6212239861488342,-0.332500010728836,-1.225000023841858,-0.4200000166893005
18.254799637445338,0.7581079602241516,-0.2471719980239868,-0.6190279722213745,-0.3849999904632568,-0.5774999856948853,-0.4550000131130218
18.27506023637702,0.7559120059013367,-0.2452199906110763,-0.6139039993286133,-0.1574999988079071,-0.0700000002980232,-0.5425000190734863
18.2953208353087,0.753715991973877,-0.2432679980993271,-0.6104879975318909,-0.262499988079071,0.262499988079071,-0.6474999785423279
18.315581434240382,0.7532280087471008,-0.2427799999713897,-0.6087799668312073,-0.4200000166893005,0.1574999988079071,-0.8924999833106995
