Time (seconds),acc_x,acc_y,acc_z,gyro_x,gyro_y,gyro_z
0.0200992910592686,-0.0846679955720901,-0.9989359974861144,0.0114679997786879,1.0325000286102295,-0.3149999976158142,-0.1050000041723251
0.0401985821185372,-0.0861319974064827,-0.9977160096168518,0.0100039998069405,0.9275000095367432,-0.1400000005960464,-0.1574999988079071
0.0602978731778058,-0.0861319974064827,-0.9969840049743652,0.0090279998257756,0.962499976158142,0.0350000001490116,-0.1574999988079071
0.0803971642370744,-0.085156001150608,-0.9989359974861144,0.0092719998210668,0.8400000333786011,0.1400000005960464,-0.0700000002980232
0.10049645529634299,-0.08661999553442,-0.9996680021286012,0.0109799997881054,0.8224999904632568,0.4025000035762787,-0.1225000023841857
0.12059574635561159,-0.085887998342514,-0.998691976070404,0.0107359997928142,1.0499999523162842,0.5425000190734863,-0.1924999952316284
0.14069503741488018,-0.085156001150608,-0.9977160096168518,0.0117119997739791,1.190000057220459,0.6474999785423279,-0.1400000005960464
0.1607943284741488,-0.0841799974441528,-0.9994239807128906,0.0146399997174739,1.1725000143051147,0.9800000190734864,-0.0700000002980232
0.1808936195334174,-0.0846679955720901,-0.9984479546546936,0.0153719997033476,1.3125,1.347499966621399,-0.2100000083446502
0.200992910592686,-0.0856439992785453,-0.9969840049743652,0.0143959997221827,1.3825000524520874,1.5049999952316284,-0.3499999940395355
0.22109220165195462,-0.0841799974441528,-0.9984479546546936,0.0156159996986389,1.3825000524520874,1.715000033378601,-0.2100000083446502
0.24119149271122323,-0.0829599946737289,-1.000643968582153,0.0173240005970001,1.277500033378601,1.924999952316284,-0.0525000020861625
0.2612907837704918,-0.0856439992785453,-0.9969840049743652,0.0161039996892213,1.399999976158142,1.995000004768372,-0.2100000083446502
0.2813900748297604,-0.0885719954967498,-0.9962520003318788,0.0180559996515512,1.190000057220459,1.924999952316284,-0.3149999976158142
0.301489365889029,-0.0910120010375976,-0.998203992843628,0.0173240005970001,0.9449999928474426,1.8725000619888303,-0.4375
0.32158865694829764,-0.0929640009999275,-0.9991799592971802,0.0131759997457265,0.9100000262260436,1.8200000524520876,-0.5600000023841858
0.34168794800756624,-0.0922319963574409,-0.9999119639396667,0.0161039996892213,0.8575000166893005,1.4175000190734863,-0.4724999964237213
0.36178723906683485,-0.0910120010375976,-0.998691976070404,0.0163480006158351,0.8050000071525574,1.3300000429153442,-0.4200000166893005
0.38188653012610346,-0.0897919982671737,-0.9962520003318788,0.0148839997127652,0.6825000047683716,1.225000023841858,-0.4025000035762787
0.40198582118537207,-0.0893040001392364,-0.9938119649887084,0.0151279997080564,0.5950000286102295,0.9449999928474426,-0.4724999964237213
0.4220851122446407,-0.0897919982671737,-0.9962520003318788,0.0141519997268915,0.2450000047683715,0.7875000238418579,-0.4375
0.4421844033039093,-0.0888160020112991,-1.0001559257507324,0.0141519997268915,0.1050000041723251,0.4724999964237213,-0.3675000071525574
0.4622836943631779,-0.0907679945230484,-0.9999119639396667,0.0119559997692704,0.2800000011920929,0.4375,-0.262499988079071
0.4823829854224465,-0.0900359973311424,-0.9984479546546936,0.0121999997645616,0.5950000286102295,0.3149999976158142,-0.332500010728836
0.5024822764817151,-0.0907679945230484,-0.9979599714279176,0.0129319997504353,0.5950000286102295,0.1400000005960464,-0.2975000143051147
0.5225815675409836,-0.0912560001015663,-0.9974719882011414,0.0121999997645616,0.5774999856948853,0.0525000020861625,-0.332500010728836
0.5426808586002522,-0.0922319963574409,-0.9989359974861144,0.0126879997551441,0.4724999964237213,-0.0175000000745058,-0.4025000035762787
0.5627801496595207,-0.0905239954590797,-1.002351999282837,0.0134199997410178,0.5950000286102295,-0.1574999988079071,-0.5774999856948853
0.5828794407187893,-0.0929640009999275,-0.998203992843628,0.0126879997551441,0.6474999785423279,-0.4375,-0.612500011920929
0.6029787317780578,-0.0949160009622573,-0.9999119639396667,0.009515999816358,0.0175000000745058,-0.8924999833106995,-0.4550000131130218
0.6230780228373264,-0.0978439971804618,-1.000643968582153,0.0075639998540282,0.0350000001490116,-1.5399999618530271,-0.2450000047683715
0.6431773138965949,-0.10589599609375,-0.9996680021286012,0.0051239999011158,0.4550000131130218,-2.450000047683716,-0.262499988079071
0.6632766049558635,-0.1100439950823783,-0.9969840049743652,0.0048799999058246,0.9975000023841858,-3.5174999237060547,-0.4025000035762787
0.683375896015132,-0.1073599979281425,-0.9945439696311952,0.0009759999811649,1.0325000286102295,-4.53249979019165,-1.1200000047683716
0.7034751870744006,-0.1029679998755455,-0.9928359985351562,0.0002439999952912,0.3675000071525574,-4.96999979019165,-1.924999952316284
0.7235744781336692,-0.1073599979281425,-0.995519995689392,-0.0017079999670386,-0.1924999952316284,-5.074999809265137,-1.5924999713897705
0.7436737691929377,-0.0971119999885559,-0.9855159521102904,0.0026839999482035,0.3849999904632568,-5.565000057220459,-1.0674999952316284
0.7637730602522063,-0.0817399993538856,-0.9938119649887084,0.0046359999105334,-1.3650000095367432,-5.84499979019165,0.0175000000745058
0.7838723513114748,-0.0814960002899169,-0.9923479557037354,0.0065879998728632,-1.6974999904632568,-5.512499809265137,0.262499988079071
0.8039716423707434,-0.0727119967341423,-0.9950319528579712,0.006343999877572,-1.9424999952316284,-5.144999980926514,0.7350000143051147
0.8240709334300119,-0.0751519948244094,-1.001376032829285,0.0148839997127652,-1.1024999618530271,-3.6050000190734863,0.5425000190734863
0.8441702244892805,-0.0683199986815452,-0.998691976070404,0.0109799997881054,-0.3849999904632568,-3.4124999046325684,0.2450000047683715
0.864269515548549,-0.0697840005159378,-0.9945439696311952,0.0134199997410178,-0.6299999952316284,-2.6075000762939453,0.4900000095367431
0.8843688066078176,-0.0736880004405975,-1.012355923652649,0.0119559997692704,-1.225000023841858,-1.5924999713897705,0.962499976158142
0.9044680976670861,-0.0734440013766288,-1.0191879272460938,0.0146399997174739,0.1050000041723251,-0.9449999928474426,0.5600000023841858
0.9245673887263547,-0.0734440013766288,-1.0118680000305176,0.0207399986684322,1.662500023841858,-0.612500011920929,-0.2975000143051147
0.9446666797856232,-0.0649039968848228,-0.9911279678344728,0.0353799983859062,0.612500011920929,1.5575000047683716,-1.0149999856948853
0.9647659708448918,-0.0607559978961944,-0.9923479557037354,0.0324519984424114,0.1924999952316284,2.765000104904175,-1.4350000619888306
0.9848652619041603,-0.0602679997682571,-0.9979599714279176,0.0312319993972778,-0.2450000047683715,3.4124999046325684,-1.627500057220459
1.004964552963429,-0.0602679997682571,-1.006500005722046,0.0346480011940002,0.1749999970197677,4.340000152587891,-1.837499976158142
1.0250638440226976,-0.0602679997682571,-1.0033279657363892,0.0317199975252151,0.4900000095367431,5.144999980926514,-1.6100000143051147
1.0451631350819661,-0.0685639977455139,-1.0055240392684937,0.0378200002014637,0.6474999785423279,6.264999866485596,-1.3300000429153442
1.0652624261412347,-0.0756400004029274,-1.004547953605652,0.032940000295639,0.2975000143051147,7.139999866485596,-0.9449999928474426
1.0853617172005032,-0.0727119967341423,-0.9989359974861144,0.0356239974498748,1.680000066757202,8.557499885559082,-1.662500023841858
1.1054610082597718,-0.0585599988698959,-1.013819932937622,0.0331839993596077,1.837499976158142,8.942500114440918,-1.6100000143051147
1.1255602993190403,-0.0580720007419586,-1.0296800136566162,0.0275719985365867,4.340000152587891,10.272500038146973,-2.257499933242798
1.145659590378309,-0.0451399981975555,-1.0228480100631714,0.0253759995102882,9.274999618530272,13.177499771118164,-3.815000057220459
1.1657588814375774,-0.0444080010056495,-1.0099159479141235,0.0241560004651546,14.542500495910645,15.102499961853027,-6.352499961853027
1.185858172496846,-0.0348920002579689,-0.9550159573554992,0.0346480011940002,13.300000190734863,15.295000076293944,-6.107500076293945
1.2059574635561146,-0.0641719996929168,-1.007475972175598,0.0187879987061023,6.159999847412109,14.192500114440918,-2.432500123977661
1.226056754615383,-0.0724679976701736,-1.0011320114135742,0.0197639986872673,7.857500076293945,15.75,-2.555000066757202
1.2461560456746517,-0.085887998342514,-1.0106480121612549,0.0175679996609687,9.975000381469728,15.329999923706056,-3.150000095367432
1.2662553367339202,-0.0917439982295036,-0.9450119733810424,0.0366000011563301,6.264999866485596,12.5649995803833,-1.2949999570846558
1.2863546277931888,-0.110287994146347,-1.038219928741455,0.0070759998634457,-0.5425000190734863,11.00749969482422,0.332500010728836
1.3064539188524573,-0.1122400015592575,-0.990395963191986,0.020983999595046,9.904999732971191,14.279999732971191,-5.792500019073486
1.3265532099117259,-0.1200480014085769,-0.9418399930000304,0.0258639995008707,3.4124999046325684,11.112500190734863,-2.747499942779541
1.3466525009709944,-0.1132159978151321,-1.02211594581604,0.0197639986872673,-2.940000057220459,7.682499885559082,-0.699999988079071
1.366751792030263,-0.1036999970674514,-1.0601799488067627,-0.0024399999529123,0.3149999976158142,5.25,-2.484999895095825
1.3868510830895315,-0.085887998342514,-0.9167079925537108,0.0380639992654323,8.1899995803833,6.125,-4.392499923706055
1.4069503741488,-0.0746639966964721,-0.9716079831123352,0.0178119987249374,-3.289999961853028,3.307500123977661,0.7699999809265137
1.4270496652080686,-0.0788119956851005,-1.0384639501571655,0.023667998611927,-6.440000057220459,1.8200000524520876,2.6600000858306885
1.4471489562673372,-0.0739319995045661,-0.993079960346222,0.0326960012316703,0.1400000005960464,2.134999990463257,-0.5600000023841858
1.4672482473266057,-0.0634399950504303,-1.0062559843063354,0.038307998329401,-0.8224999904632568,1.9075000286102293,0.1225000023841857
1.4873475383858743,-0.0507519990205764,-0.9911279678344728,0.0351359993219375,-1.6449999809265137,2.309999942779541,-0.962499976158142
1.5074468294451429,-0.0585599988698959,-1.0077199935913086,0.0344039984047412,-5.617499828338623,1.4524999856948853,-0.1574999988079071
1.5275461205044114,-0.0802759975194931,-0.9347639679908752,0.0395279973745346,-8.557499885559082,-2.712500095367432,3.4825000762939453
1.54764541156368,-0.0768599957227706,-0.9928359985351562,0.042943999171257,-8.697500228881836,4.795000076293945,8.329999923706055
1.5677447026229485,-0.0924759954214096,-0.9616039991378784,0.0309880003333091,-7.4375,7.139999866485596,7.945000171661377
1.587843993682217,-0.1076039969921112,-1.065303921699524,-0.0075639998540282,-13.807499885559082,20.177499771118164,7.210000038146973
1.6079432847414856,-0.0724679976701736,-1.0338280200958252,0.0366000011563301,0.7875000238418579,13.545000076293944,4.322500228881836
1.6280425758007542,-0.1129719987511634,-0.9769759774208068,0.033671997487545,2.065000057220459,-2.0824999809265137,8.505000114440918
1.6481418668600227,-0.037331998348236,-0.935983955860138,0.0341599993407726,-6.40500020980835,-34.247501373291016,4.199999809265137
1.6682411579192913,-0.1019919961690902,-1.026263952255249,0.0222040005028247,-12.880000114440918,-12.442500114440918,10.149999618530272
1.6883404489785598,-0.1085800006985664,-1.0384639501571655,0.0202520005404949,-8.819999694824219,-8.470000267028809,9.082500457763672
1.7084397400378284,-0.1022359952330589,-1.0135760307312012,0.0134199997410178,-3.5,-6.824999809265137,3.849999904632568
1.728539031097097,-0.1049199998378753,-0.9706319570541382,0.0229359995573759,-0.7175000309944153,-7.769999980926514,5.740000247955322
1.7486383221563655,-0.0980879962444305,-1.0150399208068848,0.0324519984424114,-2.2925000190734863,-11.637499809265137,7.595000267028809
1.768737613215634,-0.1107759997248649,-1.0696959495544434,0.0231800004839897,5.302500247955322,-11.270000457763672,-1.1725000143051147
1.7888369042749026,-0.1173639968037605,-0.9428159594535828,0.0485559999942779,14.524999618530272,-10.412500381469728,-5.039999961853027
1.8089361953341712,-0.1359079927206039,-1.0021079778671265,0.0412359982728958,11.725000381469728,-11.864999771118164,-4.112500190734863
1.8290354863934397,-0.1459119915962219,-0.9874680042266846,0.009515999816358,9.9399995803833,-10.954999923706056,-5.320000171661377
1.8491347774527083,-0.0980879962444305,-0.9698999524116516,0.0261080004274845,3.1675000190734863,-8.399999618530273,-3.5174999237060547
1.8692340685119768,-0.0822279974818229,-0.9616039991378784,0.0226919986307621,0.7350000143051147,-9.69499969482422,-1.924999952316284
1.8893333595712454,-0.047580000013113,-1.0455399751663208,-0.0039039999246597,-1.399999976158142,-12.792500495910645,1.0499999523162842
1.909432650630514,-0.1241960003972053,-0.9154880046844482,0.0941839963197708,11.4975004196167,-10.832500457763672,1.2424999475479126
1.9295319416897825,-0.171775996685028,-1.0094280242919922,0.0775920003652572,-4.567500114440918,-13.702500343322754,5.389999866485596
1.949631232749051,-0.1590880006551742,-1.0311440229415894,0.0370879992842674,-2.992500066757202,-7.822500228881836,1.399999976158142
1.9697305238083196,-0.0702719986438751,-1.0208959579467771,0.0256199985742568,3.4825000762939453,-8.539999961853027,-2.2049999237060547
1.9898298148675881,-0.0331839993596077,-0.9994239807128906,0.0300120003521442,0.9449999928474426,-15.627500534057615,-2.414999961853028
2.0099291059268567,0.0558759979903698,-0.9916160106658936,-0.0070759998634457,-3.7100000381469727,-14.699999809265137,-0.2975000143051147
2.0300283969861255,0.0156159996986389,-1.0438319444656372,0.0060999998822808,-4.164999961853027,-4.65500020980835,2.0299999713897705
2.0501276880453942,-0.0207399986684322,-0.9662399888038636,0.047335997223854,-2.7300000190734863,-1.0325000286102295,0.9449999928474426
2.070226979104663,-0.0570959970355033,-0.998691976070404,0.0058559998869895,-6.737500190734863,8.260000228881836,0.5600000023841858
2.090326270163932,-0.1232199966907501,-1.0250439643859863,0.0380639992654323,-8.3125,-3.132499933242798,0.1924999952316284
2.1104255612232006,-0.0492879971861839,-0.9877119660377502,-0.0251320004463195,-3.6575000286102295,-3.3949999809265137,-0.332500010728836
2.1305248522824694,-0.1295640021562576,-0.9559919834136964,0.0178119987249374,-4.357500076293945,12.057499885559082,-1.4700000286102295
2.150624143341738,-0.1500599980354309,-0.9957639575004578,0.0414799973368644,0.9275000095367432,8.102499961853027,-4.007500171661377
2.170723434401007,-0.13468798995018,-0.9874680042266846,0.0417240001261234,1.8899999856948853,1.3300000429153442,-3.587500095367432
2.1908227254602757,-0.0890600010752677,-1.0169919729232788,-0.0441639982163906,5.897500038146973,6.877500057220459,-4.445000171661377
2.2109220165195445,-0.1063839942216873,-0.9684360027313232,0.0268399994820356,13.842499732971191,14.210000038146973,-6.142499923706055
2.2310213075788132,-0.0366000011563301,-1.0223599672317505,-0.0100039998069405,2.6600000858306885,2.0299999713897705,-5.372499942779541
2.251120598638082,-0.0292799994349479,-0.9606279730796814,0.0019519999623298,2.940000057220459,0.0175000000745058,-3.3949999809265137
2.271219889697351,-0.0168359987437725,-1.016503930091858,-0.0060999998822808,-4.900000095367432,-6.579999923706055,-2.362499952316284
2.2913191807566196,-0.0195199996232986,-1.0460280179977417,0.0178119987249374,-1.8550000190734863,-6.789999961853027,-4.21750020980835
2.3114184718158883,-0.0688079968094825,-0.9067040085792542,0.0212280005216598,8.697500228881836,14.524999618530272,-2.782500028610229
2.331517762875157,-0.1085800006985664,-1.0160160064697266,0.0229359995573759,3.0799999237060547,25.899999618530277,1.6449999809265137
2.351617053934426,-0.0890600010752677,-1.0440759658813477,0.0307439994066953,3.2725000381469727,15.399999618530272,0.3149999976158142
2.3717163449936947,-0.0788119956851005,-1.0806759595870972,0.0422119982540607,5.932499885559082,4.900000095367432,-7.542500019073486
2.3918156360529634,-0.0507519990205764,-1.0067440271377563,0.0219599995762109,15.522500038146973,3.325000047683716,-11.77750015258789
2.411914927112232,-0.0710039958357811,-0.9520879983901978,0.0124439997598528,17.010000228881836,10.1850004196167,-4.164999961853027
2.432014218171501,-0.1500599980354309,-0.8896239995956421,0.0578279979526996,15.085000038146973,9.467499732971191,1.2599999904632568
2.4521135092307698,-0.0832040011882782,-1.0155279636383057,0.0273279994726181,-12.880000114440918,19.28499984741211,11.042500495910645
2.4722128002900385,-0.0117119997739791,-1.0579839944839478,0.0366000011563301,-14.980000495910645,11.357500076293944,17.412500381469727
2.4923120913493073,-0.0978439971804618,-0.9999119639396667,0.0041479999199509,-3.255000114440918,-1.4874999523162842,20.19499969482422
2.512411382408576,-0.1193159967660904,-0.9557479619979858,0.0090279998257756,7.857500076293945,7.752500057220459,25.95249938964844
2.532510673467845,-0.1644559949636459,-1.011379957199097,0.0222040005028247,2.5374999046325684,12.61750030517578,15.960000038146973
2.5526099645271136,-0.1178519949316978,-1.0091840028762815,0.0583159998059272,1.1549999713897705,9.817500114440918,11.654999732971191
2.5727092555863824,-0.2088640034198761,-0.994055986404419,0.0495319999754428,1.6100000143051147,-0.4025000035762787,7.472499847412109
2.592808546645651,-0.2156959921121597,-0.9945439696311952,0.0361119993031024,0.6474999785423279,2.712500095367432,2.362499952316284
2.61290783770492,-0.0607559978961944,-1.0008879899978638,-0.0041479999199509,0.0350000001490116,0.5774999856948853,-0.6474999785423279
2.6330071287641887,0.0775920003652572,-0.97843998670578,-0.0165919996798038,-5.179999828338623,-2.747499942779541,4.322500228881836
2.6531064198234575,0.2047159969806671,-0.9537959694862366,-0.1637239903211593,-11.829999923706056,-5.179999828338623,7.822500228881836
2.6732057108827263,-0.0461159981787204,-1.1438720226287842,0.2213079929351806,24.167499542236328,19.9325008392334,11.8125
2.693305001941995,-0.4753119945526123,-1.0294359922409058,0.0985759943723678,35.209999084472656,-33.407501220703125,-10.552499771118164
2.713404293001264,-0.3840560019016266,-0.9750239849090576,-0.0485559999942779,28.89249992370605,-1.2949999570846558,-9.239999771118164
2.7335035840605326,-0.1881240010261535,-0.9518439769744872,0.042943999171257,21.227500915527344,5.949999809265137,-7.017499923706055
2.7536028751198014,-0.2166720032691955,-0.9057279825210572,0.1100439950823783,14.770000457763672,-4.427500247955322,-2.012500047683716
2.77370216617907,-0.1932480037212371,-0.9054839611053468,0.1078479960560798,0.699999988079071,1.399999976158142,2.6075000762939453
2.793801457238339,-0.1715319901704788,-0.9152439832687378,0.0939399972558021,-15.015000343322754,5.740000247955322,7.840000152587891
2.8139007482976077,-0.1434720009565353,-0.9101200103759766,0.0683199986815452,-23.537500381469727,-1.8025000095367432,10.587499618530272
2.8340000393568765,-0.0929640009999275,-0.9562360048294068,0.0241560004651546,-30.11750030517578,-4.025000095367432,-2.484999895095825
2.8540993304161453,0.0141519997268915,-1.0601799488067627,0.0046359999105334,-36.907501220703125,-20.7549991607666,-26.25
2.874198621475414,-0.009515999816358,-1.0338280200958252,0.0256199985742568,-39.72499847412109,-27.842500686645508,-26.82749938964844
2.894297912534683,-0.2513200044631958,-1.1316720247268677,-0.0173240005970001,-43.942501068115234,-3.150000095367432,-29.71500015258789
2.9143972035939516,-0.3406240046024322,-0.936959981918335,0.0497759990394115,-7.315000057220459,-29.540000915527344,-5.197500228881836
2.9344964946532204,-0.038307998329401,-1.0233359336853027,-0.0541680008172988,-17.482500076293945,-34.89500045776367,14.1225004196167
2.954595785712489,0.0834480002522468,-0.9652639627456664,-0.0129319997504353,9.55500030517578,-54.54750061035156,10.3774995803833
2.974695076771758,0.1241960003972053,-1.1687599420547483,0.023667998611927,8.977499961853027,-70.69999694824219,-2.345000028610229
2.9947943678310267,0.0009759999811649,-1.0243120193481443,0.0326960012316703,1.8899999856948853,-50.400001525878906,-7.034999847412109
3.0148936588902955,-0.1737279891967773,-0.9118279814720154,0.0366000011563301,-10.779999732971191,-11.462499618530272,-4.112500190734863
3.0349929499495643,-0.2766959965229034,-0.831063985824585,0.1600639969110489,-37.53749847412109,-9.484999656677246,6.947500228881836
3.055092241008833,-0.1754359900951385,-1.156559944152832,-0.124439999461174,-41.212501525878906,-59.20249938964844,11.952500343322754
3.075191532068102,-0.076615996658802,-0.8322839736938477,0.0670999959111213,15.470000267028809,-73.81500244140625,13.282500267028809
3.0952908231273706,-0.0146399997174739,-1.1175199747085571,-0.0570959970355033,-33.915000915527344,-47.407501220703125,15.977499961853027
3.1153901141866394,-0.1261480003595352,-1.0050359964370728,-0.0078079998493194,-11.707500457763672,-26.89750099182129,4.287499904632568
3.135489405245908,-0.0854000002145767,-0.9437919855117798,0.0219599995762109,-36.29500198364258,-32.584999084472656,4.340000152587891
3.155588696305177,-0.0634399950504303,-1.0445640087127686,-0.1158999949693679,-36.24250030517578,-28.45499992370605,1.2949999570846558
3.1756879873644457,-0.1210239976644516,-0.9420839548110962,0.0043919999152421,-11.077500343322754,-14.262499809265137,4.164999961853027
3.1957872784237145,-0.1049199998378753,-1.001863956451416,-0.0041479999199509,-27.125,-22.38249969482422,10.255000114440918
3.2158865694829832,-0.1305399984121322,-1.0003999471664429,0.0068319998681545,-32.025001525878906,-47.51250076293945,21.979999542236328
3.235985860542252,-0.1729959994554519,-1.006011962890625,0.0107359997928142,-30.712499618530277,-70.45500183105469,24.832500457763672
3.256085151601521,-0.1332239955663681,-1.0133320093154907,-0.0202520005404949,-31.552499771118164,-91.62999725341795,22.487499237060547
3.2761844426607896,-0.1578679978847503,-0.9823439717292786,0.0241560004651546,-43.8025016784668,-113.26000213623048,23.34499931335449
3.2962837337200583,-0.1063839942216873,-0.9830759763717652,-0.1249279975891113,-64.69750213623047,-117.31999969482422,8.78499984741211
3.316383024779327,-0.171775996685028,-1.0011320114135742,-0.1522559970617294,-71.8550033569336,-100.0999984741211,-0.1400000005960464
3.336482315838596,-0.1851959973573684,-0.9662399888038636,-0.0980879962444305,-52.79750061035156,-82.89749908447266,-2.362499952316284
3.3565816068978647,-0.2242359966039657,-1.0260199308395386,0.3296439945697784,-18.76000022888184,-116.0425033569336,5.074999809265137
3.3766808979571334,-0.257420003414154,-0.972827970981598,-0.4099199771881103,-14.80500030517578,-127.17250061035156,-5.127500057220459
3.396780189016402,-0.1834879964590072,-0.8539999723434448,0.1512800008058548,-33.65250015258789,-151.75999450683594,-6.142499923706055
3.416879480075671,-0.3091479837894439,-0.9598959684371948,-0.1576239913702011,-101.72750091552734,-170.6074981689453,2.1700000762939453
3.4369787711349398,-0.2664479911327362,-0.7988559603691101,-0.4843399822711944,-47.915000915527344,-176.69749450683594,5.057499885559082
3.4570780621942085,-0.2471719980239868,-0.9716079831123352,-0.3481879830360412,-25.77750015258789,-147.4375,23.4325008392334
3.4771773532534773,-0.1505479961633682,-1.1111760139465332,-0.206179991364479,-29.872499465942383,-99.80249786376952,11.829999923706056
3.497276644312746,-0.3416000008583069,-0.8718119859695435,-0.0649039968848228,-60.27000045776367,-83.63249969482422,2.0999999046325684
3.517375935372015,-0.1661639958620071,-1.1158119440078735,-0.3677079975605011,-62.40499877929688,-81.7074966430664,-0.332500010728836
3.5374752264312836,-0.3223240077495575,-0.8825479745864868,0.2144759893417358,-115.01000213623048,-65.04750061035156,-12.635000228881836
3.5575745174905524,-0.4294399917125702,-1.120203971862793,-0.6424520015716553,-83.05500030517578,-85.15499877929688,-37.06499862670898
3.577673808549821,-0.2369239926338195,-0.9113399982452391,0.0649039968848228,-56.82250213623047,-95.41000366210938,-69.63249969482422
3.59777309960909,-0.2039839923381805,-0.8476560115814209,-0.1268799901008606,-123.76000213623048,-131.0749969482422,-82.21500396728516
3.6178723906683588,-0.1456679999828338,-0.8403359651565552,-0.456523984670639,-94.72750091552734,-147.1925048828125,-63.209999084472656
3.6379716817276275,-0.2622999846935272,-0.7864120006561279,-0.4360280036926269,15.207500457763672,-119.6999969482422,-35.997501373291016
3.6580709727868963,-0.3472119867801666,-0.8810839653015137,-0.3794199824333191,-1.784999966621399,-87.9375,-8.71500015258789
3.678170263846165,-0.2942639887332916,-0.8801079988479614,-0.3601439893245697,-1.3300000429153442,-59.63999938964844,11.024999618530272
3.698269554905434,-0.322079986333847,-0.925491988658905,-0.4094319939613342,42.94499969482422,-18.707500457763672,20.107500076293945
3.7183688459647026,-0.2422920018434524,-1.042367935180664,-0.2967039942741394,55.29999923706055,24.920000076293945,22.049999237060547
3.7384681370239714,-0.183243989944458,-1.0140639543533323,-0.2010560035705566,50.3125,51.72999954223633,10.8149995803833
3.75856742808324,-0.2195999920368194,-0.9962520003318788,-0.2281399965286255,52.39500045776367,70.94499969482422,-5.740000247955322
3.778666719142509,-0.2047159969806671,-0.9620919823646544,-0.1751919984817505,56.73500061035156,83.77249908447266,-16.065000534057617
3.7987660102017777,-0.2027639895677566,-0.9945439696311952,-0.2925559878349304,42.962501525878906,91.06999969482422,-16.764999389648438
3.8188653012610465,-0.1393239945173263,-1.0069879293441772,-0.2810879945755005,49.647499084472656,104.80750274658205,-18.690000534057617
3.8389645923203153,-0.140299990773201,-0.9008479714393616,-0.1337119936943054,32.654998779296875,101.2375030517578,-18.462499618530277
3.859063883379584,-0.1595759987831115,-0.8642479777336121,-0.1522559970617294,9.047499656677246,72.02999877929688,-9.572500228881836
3.879163174438853,-0.1285879909992218,-0.945743978023529,-0.2154520004987716,26.84499931335449,51.97499847412109,3.6575000286102295
3.8992624654981216,-0.0990639999508857,-0.9542839527130128,-0.1727519929409027,31.02750015258789,51.08250045776367,9.274999618530272
3.9193617565573904,-0.143227994441986,-0.8359439969062805,-0.1273680031299591,17.114999771118164,50.942501068115234,16.239999771118164
3.939461047616659,-0.1737279891967773,-0.9474520087242126,-0.2164279967546463,22.38249969482422,47.28499984741211,35.244998931884766
3.959560338675928,-0.1481079906225204,-1.0523719787597656,-0.0741759985685348,109.79499816894533,108.46500396728516,-42.8224983215332
3.9796596297351967,-0.1512800008058548,-0.5978000164031982,0.1395680010318756,124.61750030517578,97.98249816894533,-31.184999465942383
3.9997589207944655,-0.1376159936189651,-0.5895040035247803,0.0207399986684322,44.09999847412109,70.5250015258789,29.78499984741211
4.019858211853734,-0.2164279967546463,-0.8676639795303345,-0.2195999920368194,-11.287500381469728,72.87000274658203,84.85749816894531
4.039957502913002,-0.2486359924077987,-0.9235399961471558,-0.3418439924716949,74.14749908447266,110.09249877929688,85.4000015258789
4.0600567939722705,-0.1566479951143264,-1.0731120109558103,-0.2271640002727508,109.16500091552734,165.46249389648438,76.84249877929688
4.080156085031539,-0.3811279833316803,-0.8920639753341675,-0.0341599993407726,24.71000099182129,201.63499450683597,84.875
4.100255376090807,-0.3486759960651397,-1.531343936920166,0.0492879971861839,112.05249786376952,198.8175048828125,46.00749969482422
4.1203546671500755,-0.3647799789905548,-1.187059998512268,0.1688479930162429,260.6449890136719,170.06500244140625,6.40500020980835
4.140453958209344,-0.3742959797382355,-0.9428159594535828,0.3001199960708618,278.8275146484375,130.47999572753906,-31.552499771118164
4.160553249268612,-0.2701079845428467,-0.5504639744758606,0.2886520028114319,160.16000366210938,82.44249725341797,-41.369998931884766
4.1806525403278805,-0.2069119960069656,-0.8134959936141968,0.1991039961576461,-19.19750022888184,62.26499938964844,-6.107500076293945
4.200751831387149,-0.5016639828681946,-0.924515962600708,0.1237079948186874,-29.575000762939453,66.11499786376953,17.290000915527344
4.220851122446417,-0.9433040022850036,-0.8657119870185852,0.1764120012521743,-39.462501525878906,25.44499969482422,16.25749969482422
4.2409504135056855,0.1749479919672012,-0.888159990310669,0.2425359934568405,-46.165000915527344,-8.015000343322754,23.99250030517578
4.261049704564954,-0.0619760006666183,-1.139967918395996,-0.0034159999340772,-35.45500183105469,-5.337500095367432,39.30500030517578
4.281148995624222,-0.2871879935264587,-0.9408639669418336,0.1705559939146042,29.225000381469727,-11.40999984741211,31.045000076293945
4.3012482866834905,-0.1988599896430969,-0.9535520076751708,0.0854000002145767,16.940000534057617,-10.220000267028809,14.105000495910645
4.321347577742759,-0.1947119981050491,-0.8574159741401672,0.0656360015273094,-40.12749862670898,2.2225000858306885,3.377500057220459
4.341446868802027,-0.2918239831924438,-0.924515962600708,-0.0202520005404949,-61.11000061035156,7.787499904632568,17.7450008392334
4.3615461598612955,-0.6253719925880432,-1.3124759197235107,0.1205359995365142,-44.397499084472656,27.912500381469727,4.130000114440918
4.381645450920564,-0.1925159990787506,-1.7790039777755735,-0.2740119993686676,4.445000171661377,63.17499923706055,-64.8375015258789
4.401744741979832,-0.2549799978733063,-0.3786879777908325,0.3852759897708893,137.91749572753906,61.3025016784668,-81.88249969482422
4.4218440330391005,-0.3054879903793335,-0.5836479663848877,0.1922719925642013,6.965000152587891,34.439998626708984,-35.33250045776367
4.441943324098369,-0.2349720001220703,-1.0855560302734375,0.0670999959111213,36.33000183105469,4.042500019073486,-10.692500114440918
4.462042615157637,-0.3010959923267364,-1.254647970199585,0.0392839983105659,41.84249877929688,5.110000133514404,-10.552499771118164
4.4821419062169054,-0.3374519944190979,-0.8500959873199463,0.3137840032577514,63.157501220703125,-3.7799999713897705,-15.067500114440918
4.502241197276174,-0.4086999893188476,-0.8281359672546387,0.2593719959259033,70.50749969482422,-39.900001525878906,-7.769999980926514
4.522340488335442,-0.2522960007190704,-0.8647359609603882,0.4025999903678894,99.81999969482422,-96.02249908447266,-0.332500010728836
4.54243977939471,0.3052439987659454,-1.235859990119934,0.5489999651908875,82.05750274658203,-134.85499572753906,10.5
4.562539070453979,0.0051239999011158,-0.9486719965934752,0.2749879956245422,64.47000122070312,-102.21749877929688,23.030000686645508
4.582638361513247,0.0060999998822808,-0.9476959705352784,0.3191519975662231,83.68499755859375,-68.3375015258789,4.322500228881836
4.602737652572515,-0.3594119846820831,-0.8884040117263794,0.1112639978528022,57.64500045776367,-12.460000038146973,-2.2049999237060547
4.622836943631784,-0.1366399973630905,-0.9250040054321288,0.2610799968242645,67.32250213623047,-67.0250015258789,-8.662500381469727
4.642936234691052,0.0009759999811649,-0.7051599621772766,0.5331400036811829,81.56749725341797,-57.69750213623047,-3.7799999713897705
4.66303552575032,-0.3555079996585846,-0.7107719779014587,0.0243999995291233,62.70249938964844,-17.02750015258789,-2.5899999141693115
4.683134816809589,-0.1415199935436248,-0.7366359829902649,0.534604012966156,40.96749877929688,-38.48250198364258,-0.6825000047683716
4.703234107868857,-0.1790959984064102,-0.995519995689392,0.2576639950275421,17.360000610351562,8.505000114440918,-2.625
4.723333398928125,0.0553879998624324,-0.9201239943504332,0.5277720093727112,16.39750099182129,-2.362499952316284,8.680000305175781
4.743432689987394,0.1905639916658401,-0.8600999712944031,0.4001599848270416,17.412500381469727,-2.2925000190734863,12.635000228881836
4.763531981046662,0.0170799996703863,-0.802515983581543,0.2452199906110763,16.729999542236328,11.217499732971191,11.707500457763672
4.78363127210593,-0.0688079968094825,-0.6631919741630554,0.2901159822940826,7.332499980926514,12.635000228881836,7.822500228881836
4.803730563165199,-0.1239520013332367,-0.9169519543647766,0.3757599890232086,-20.86000061035156,19.98500061035156,-6.264999866485596
4.823829854224467,-0.0395279973745346,-1.1641240119934082,0.5011759996414185,-22.0674991607666,21.73500061035156,-18.165000915527344
4.843929145283735,0.2122799903154373,-0.9569680094718932,0.3806400001049042,-7.122499942779541,23.309999465942383,-17.850000381469727
4.864028436343004,0.4218759834766388,-0.925491988658905,0.4501799941062927,-2.1700000762939453,17.832500457763672,-36.64500045776367
4.884127727402272,0.6063399910926819,-0.958675980567932,0.3779560029506683,-5.652500152587891,17.815000534057617,-53.35750198364258
4.90422701846154,0.5582720041275024,-0.9325679540634156,0.30621999502182,-16.520000457763672,18.07749938964844,-72.90499877929688
4.924326309520809,0.3638039827346802,-1.1712000370025637,0.2937760055065155,-32.567501068115234,26.512500762939453,-91.31500244140624
4.944425600580077,-0.0263519994914531,-1.1316720247268677,0.0456280000507831,-39.00749969482422,34.98250198364258,-91.0875015258789
4.964524891639345,-0.2945079803466797,-1.1519240140914917,0.1490840017795562,-38.39500045776367,19.670000076293945,-97.4574966430664
4.984624182698614,-0.3720999956130981,-1.2626999616622925,0.2644959986209869,-30.817501068115234,17.71000099182129,-90.05500030517578
5.004723473757882,-0.5065439939498901,-1.1755919456481934,0.244731992483139,-34.0724983215332,21.73500061035156,-65.06500244140625
5.02482276481715,-0.8293559551239014,-1.594051957130432,-0.1454239934682846,-30.69499969482422,18.059999465942383,-30.13500022888184
5.044922055876419,-0.3523359894752502,-0.5424119830131531,0.4601839780807495,-18.84749984741211,-91.99749755859376,23.975000381469727
5.065021346935687,-0.1190719977021217,-0.6905199885368347,0.6795399785041809,-54.21500015258789,-79.23999786376953,-43.45249938964844
5.085120637994955,-0.1695799976587295,-1.419592022895813,0.6112200021743774,-33.529998779296875,-36.92499923706055,-119.24500274658205
5.105219929054224,-0.9952759742736816,-2.5929880142211914,1.152168035507202,-16.782499313354492,42.73500061035156,-66.8499984741211
5.125319220113492,-0.6653879880905151,-2.0434999465942383,2.097179889678955,2.5899999141693115,148.43499755859375,156.8000030517578
5.14541851117276,-1.5669679641723633,1.2575759887695312,-1.3544440269470217,168.97999572753906,194.65249633789065,143.60499572753906
5.165517802232029,0.3596560060977936,-1.8253639936447144,1.0599359273910522,-43.29500198364258,-145.35499572753906,-78.75
5.185617093291297,0.3879599869251251,-1.002351999282837,1.3066200017929075,29.067501068115234,-57.68000030517578,-18.427499771118164
5.205716384350565,0.1622599959373474,-0.7578639984130859,0.973315954208374,73.53500366210938,59.02750015258789,-29.575000762939453
5.225815675409834,-0.3972319960594177,-0.9032880067825316,-0.3984519839286804,71.26000213623047,65.25749969482422,-25.725000381469727
5.245914966469102,-0.1012599989771843,-0.3650240004062652,0.2659600079059601,61.25,-75.96749877929688,4.340000152587891
5.26601425752837,0.0983319953083992,-0.5382639765739441,0.6592879891395569,33.23250198364258,-75.73999786376953,-11.095000267028809
5.286113548587639,0.2771840095520019,-1.165343999862671,0.7693319916725159,22.52250099182129,-25.77750015258789,-2.6600000858306885
5.306212839646907,0.1512800008058548,-0.6849079728126526,0.2293599992990493,64.61000061035156,47.880001068115234,4.130000114440918
5.326312130706175,-0.1354199945926666,-0.8022719621658325,-0.268887996673584,36.41749954223633,30.4325008392334,-0.0700000002980232
5.346411421765444,-0.1927599906921386,-0.285968005657196,0.1825120002031326,37.92250061035156,-64.8550033569336,-10.46500015258789
5.366510712824712,-0.0392839983105659,-0.9396439790725708,0.795195996761322,5.757500171661377,-59.587501525878906,-32.095001220703125
5.38661000388398,0.0936959981918335,-1.2353719472885132,0.6849079728126526,4.497499942779541,39.8125,8.539999961853027
5.406709294943249,0.0141519997268915,-0.5826719999313354,-0.3035359978675842,15.190000534057615,68.23249816894531,36.8025016784668
5.426808586002517,0.644648015499115,-0.7725039720535278,-0.3047559857368469,-13.510000228881836,-38.4474983215332,10.324999809265137
5.446907877061785,0.7695760130882263,-0.7205320000648499,-0.047580000013113,-17.9375,-121.52000427246094,-25.39249992370605
5.467007168121054,0.6668519973754883,-1.2626999616622925,0.3498959839344024,-41.6150016784668,-124.56500244140624,-76.2300033569336
5.487106459180322,0.5604680180549622,-1.3539559841156006,0.6060959696769714,-38.692501068115234,-42.4375,-82.28500366210938
5.50720575023959,0.5424119830131531,-1.501575946807861,1.0474920272827148,-31.0625,64.95999908447266,-51.25749969482422
5.527305041298859,0.1893439888954162,-0.9818559885025024,0.3047559857368469,-12.337499618530272,176.64500427246094,-33.38999938964844
5.547404332358127,0.0431879982352256,-1.0748199224472046,0.3752720057964325,-8.015000343322754,190.0675048828125,-60.72499847412109
5.567503623417395,-0.0119559997692704,-1.1841319799423218,0.3562400043010711,-15.364999771118164,164.0625,-60.72499847412109
5.587602914476664,-0.046604000031948,-1.0084519386291504,0.4628680050373077,2.9049999713897705,117.45999908447266,-62.772499084472656
5.607702205535932,-0.0651479959487915,-1.361032009124756,0.4911719858646393,4.445000171661377,81.30500030517578,-56.209999084472656
5.6278014965952,-0.0719799995422363,-1.2702640295028689,0.509227991104126,12.28499984741211,28.104999542236328,-19.862499237060547
5.647900787654469,0.1366399973630905,-1.0706720352172852,0.5233799815177917,28.36750030517578,-28.21000099182129,-2.380000114440918
5.668000078713737,0.2088640034198761,-0.4267559945583343,1.176811933517456,34.09000015258789,-5.40749979019165,-10.114999771118164
5.688099369773005,0.0893040001392364,-0.7315120100975037,0.5619319677352905,33.459999084472656,32.935001373291016,-70.69999694824219
5.708198660832274,-0.1168759986758232,-0.9889319539070128,0.1976400017738342,22.81999969482422,17.97249984741211,-79.0999984741211
5.728297951891542,-0.152988001704216,-1.0467599630355835,0.4240719974040985,25.357500076293945,-56.192501068115234,-57.872501373291016
5.74839724295081,-0.2635200023651123,-0.8747400045394897,0.4501799941062927,27.877500534057617,-105.64749908447266,-31.21999931335449
5.768496534010079,0.018300000578165,-0.6963759660720825,0.888159990310669,26.512500762939453,-101.5,-22.872499465942383
5.788595825069347,-0.0875959992408752,-0.7651839852333069,0.7151640057563782,33.092498779296875,-77.22750091552734,-43.29500198364258
5.808695116128615,-0.1659199893474578,-0.8910880088806152,0.6595320105552673,39.8650016784668,-70.4375,-55.247501373291016
5.828794407187884,-0.218868002295494,-0.936959981918335,0.8749839663505554,53.165000915527344,-72.55500030517578,-51.76499938964844
5.848893698247152,-0.3284240067005157,-0.5873079895973206,0.8417999744415283,70.9625015258789,-59.23749923706055,-48.45750045776367
5.86899298930642,-0.3779560029506683,-0.5245999693870544,0.7383440136909485,77.99749755859375,-53.8125,-74.86499786376953
5.889092280365689,-0.1927599906921386,-0.7629879713058472,0.6705119609832764,51.275001525878906,-45.67499923706055,-75.70500183105469
5.909191571424957,-0.1737279891967773,-1.088727951049805,0.3855199813842773,40.11000061035156,-57.505001068115234,-40.442501068115234
5.929290862484225,-0.0317199975252151,-0.6834439635276794,0.5546119809150696,83.31749725341797,-93.06500244140624,4.829999923706055
5.949390153543494,-0.0034159999340772,-0.4443239867687225,0.5407040119171143,99.43499755859376,-116.97000122070312,-2.7300000190734863
5.969489444602762,-0.0580720007419586,-0.757375955581665,0.4318799972534179,126.77000427246094,-159.21499633789062,-42.27999877929688
5.98958873566203,0.0190319996327161,-0.5919439792633057,0.4196799993515014,129.55250549316406,-190.2949981689453,-22.0674991607666
6.009688026721299,0.0856439992785453,-0.5780360102653503,0.2137439996004104,107.20500183105467,-223.5800018310547,11.4975004196167
6.029787317780567,0.4255359768867492,-0.5236240029335022,0.5873079895973206,117.45999908447266,-287.9624938964844,23.11750030517578
6.049886608839835,0.5794999599456787,-0.3193959891796112,0.7019879817962646,116.05999755859376,-277.88250732421875,31.674999237060547
6.069985899899104,0.6480640172958374,-0.3601439893245697,0.7068679928779602,96.1624984741211,-225.71499633789065,25.23500061035156
6.090085190958372,0.6773439645767212,-0.3286679983139038,0.6412320137023926,98.99749755859376,-172.32249450683594,1.837499976158142
6.11018448201764,0.7146759629249573,-0.3052439987659454,0.5026400089263916,92.10250091552734,-125.84249877929688,-2.940000057220459
6.130283773076909,0.762499988079071,-0.297435998916626,0.4311479926109314,86.92250061035156,-102.77750396728516,-3.325000047683716
6.150383064136177,0.7466399669647217,-0.3435519933700561,0.4011359810829162,85.26000213623047,-92.12000274658205,-9.082500457763672
6.170482355195445,0.5785239934921265,-0.4399319887161255,0.3940599858760834,104.9124984741211,-86.48500061035156,-24.63999938964844
6.190581646254714,0.6419639587402344,-0.5375319719314575,0.3169559836387634,92.81999969482422,-68.61750030517578,10.237500190734863
6.210680937313982,0.716871976852417,-0.4243159890174866,0.3001199960708618,53.74250030517578,-50.59249877929688,65.50250244140625
6.23078022837325,0.6932039856910706,-0.4304159879684448,0.2120359987020492,29.417499542236328,-51.625,58.834999084472656
6.250879519432519,0.9594079852104188,-0.7895839810371399,0.0090279998257756,42.70000076293945,-60.40999984741211,-5.460000038146973
6.270978810491787,0.9984479546546936,-1.1309399604797363,-0.1354199945926666,72.16999816894531,-91.75250244140624,-32.51499938964844
6.291078101551055,1.0025960206985474,-1.0265079736709597,-0.2784039974212646,82.5824966430664,-141.38250732421875,-0.2100000083446502
6.311177392610324,0.9789279699325562,-0.7534719705581665,-0.2503440082073211,58.55500030517578,-164.2899932861328,52.0099983215332
6.331276683669592,1.1121519804000854,-0.4389559924602508,-0.3118319809436798,0.6825000047683716,-156.97500610351562,93.06500244140624
6.35137597472886,1.3734760284423828,-0.4294399917125702,-0.3638039827346802,-57.102500915527344,-145.84500122070312,59.02750015258789
6.371475265788129,1.0926319360733032,-0.8803519606590271,-0.3652679920196533,-61.79249954223633,-243.3374938964844,-32.95249938964844
6.391574556847397,0.965507984161377,-1.0335839986801147,-0.387472003698349,-13.579999923706056,-270.4100036621094,-16.712499618530273
6.411673847906665,0.7473719716072083,-0.52947998046875,-0.5053240060806274,12.267499923706056,-248.3600006103516,35.752498626708984
6.431773138965934,0.8886479735374451,-0.3350119888782501,-0.3274479806423187,-3.2725000381469727,-217.875,63.84000015258789
6.451872430025202,0.9801479578018188,-0.1703120023012161,-0.1625040024518966,-52.0625,-152.54750061035156,57.45249938964844
6.47197172108447,0.8525359630584717,-0.4667719900608063,-0.3601439893245697,-122.3249969482422,-95.9875030517578,9.170000076293944
6.492071012143739,0.8579039573669434,-0.8891359567642212,-0.3233000040054321,-126.62999725341795,-87.72750091552734,-15.574999809265137
6.512170303203007,0.6753919720649719,-0.856440007686615,-0.2803559899330139,-85.75,-58.95750045776367,20.94750022888184
6.532269594262275,0.5995079874992371,-0.7156519889831543,-0.4226079881191253,-49.227500915527344,-22.81999969482422,51.1349983215332
6.552368885321544,0.7498120069503784,-0.972827970981598,-0.2183799892663955,-13.982500076293944,-33.23250198364258,62.807498931884766
6.572468176380812,0.8361879587173462,-0.7690879702568054,-0.3369639813899994,36.76750183105469,-78.55750274658203,87.04499816894531
6.59256746744008,0.7917799949645996,-0.0824719965457916,-0.1615279912948608,89.26750183105469,-140.4199981689453,84.84000396728516
6.612666758499349,0.8359439969062805,-0.147376000881195,-0.201787993311882,86.7300033569336,-151.7425079345703,18.795000076293945
6.632766049558617,0.7646960020065308,-0.0824719965457916,-0.1376159936189651,78.26000213623047,-122.69249725341795,-104.9124984741211
6.652865340617885,0.9101200103759766,-0.7815319895744324,-0.0192760005593299,135.2050018310547,-62.15999984741211,-227.18499755859372
6.672964631677154,0.9972279667854308,-0.9271999597549438,-0.0229359995573759,118.07250213623048,15.364999771118164,-191.69500732421875
6.693063922736422,0.6468439698219299,-0.832040011882782,-0.2144759893417358,77.62999725341797,70.47250366210938,-119.6999969482422
6.71316321379569,0.8088600039482117,-0.5733999609947205,0.0468479990959167,4.602499961853027,141.6800079345703,-15.452500343322754
6.733262504854959,0.9325679540634156,-0.2325319945812225,-0.5338720083236694,-140.08749389648438,209.26499938964844,62.755001068115234
6.753361795914227,0.9189040064811708,-0.5531479716300964,-0.473360002040863,-106.75,212.8699951171875,6.929999828338623
6.773461086973495,1.030900001525879,-0.6136599779129028,-0.3986960053443908,-67.53250122070312,211.5399932861328,-25.690000534057617
6.793560378032764,1.0440759658813477,-0.7171159982681274,-0.3711239993572235,-5.389999866485596,177.2050018310547,-43.34749984741211
6.813659669092032,1.0867760181427002,-0.676367998123169,-0.2857239842414856,8.71500015258789,152.33749389648438,-29.575000762939453
6.8337589601513,1.0250439643859863,-0.4821439981460571,-0.2762079834938049,3.202500104904175,158.86500549316406,-25.84749984741211
6.853858251210569,0.9786840081214904,-0.4545719921588897,-0.2896279990673065,-13.475000381469728,176.15499877929688,-33.72249984741211
6.873957542269837,0.9418399930000304,-0.4106519818305969,-0.2908479869365692,-26.162500381469727,167.86000061035156,-37.95750045776367
6.894056833329105,0.8491199612617493,-0.3618519902229309,-0.2876760065555572,-35.45500183105469,126.40250396728516,-45.255001068115234
6.914156124388374,0.8698599934577942,-0.5416799783706665,-0.2108159959316253,-45.587501525878906,74.4625015258789,-52.32500076293945
6.934255415447642,0.9979599714279176,-0.700767993927002,-0.1202920004725456,-31.97249984741211,29.71500015258789,-41.91249847412109
6.95435470650691,1.017967939376831,-0.4638440012931824,0.0114679997786879,-10.46500015258789,2.5374999046325684,-16.1875
6.974453997566179,1.0062559843063354,-0.269131988286972,0.0778359994292259,-22.61000061035156,-0.0350000001490116,-46.095001220703125
6.994553288625447,1.0128439664840698,-0.5748639702796936,0.0888160020112991,-43.994998931884766,37.53749847412109,-50.71500015258789
7.014652579684715,1.0152839422225952,-0.5267959833145142,0.0802759975194931,-41.47499847412109,61.372501373291016,-31.79750061035156
7.034751870743984,1.0326080322265625,-0.2571759819984436,0.052947998046875,-28.927499771118164,54.494998931884766,-29.662500381469727
7.054851161803252,1.0111359357833862,-0.2037400007247924,0.041967999190092,-24.36000061035156,53.30500030517578,-50.942501068115234
7.07495045286252,0.941107988357544,-0.3586799800395965,0.0368440002202987,-33.477500915527344,66.46500396728516,-63.50749969482422
7.0950497439217886,0.8622959852218628,-0.4635999798774719,-0.0165919996798038,-35.9275016784668,57.24250030517578,-55.66749954223633
7.115149034981057,0.8252080082893372,-0.4784840047359466,0.0661239996552467,-31.290000915527344,20.649999618530277,-39.30500030517578
7.135248326040325,0.8810839653015137,-0.3313519954681396,0.0556319989264011,-29.78499984741211,-11.199999809265137,-25.217500686645508
7.1553476170995935,0.9113399982452391,-0.0536799989640712,0.095160000026226,-31.780000686645508,-21.280000686645508,-29.88999938964844
7.175446908158862,0.9342759847640992,-0.1061399951577186,-0.0165919996798038,-53.25249862670898,-10.8149995803833,-55.43999862670898
7.19554619921813,0.8876720070838928,-0.3228119909763336,-0.0239119995385408,-66.44750213623047,2.2225000858306885,-72.67749786376953
7.2156454902773985,0.8381400108337402,-0.6158559918403625,-0.003171999938786,-62.54500198364258,-12.25,-67.00749969482422
7.235744781336667,0.7556679844856262,-0.7722600102424622,-0.0243999995291233,-48.807498931884766,-62.94750213623047,-32.182498931884766
7.255844072395935,0.7166280150413513,-0.6378160119056702,0.1995919942855835,-23.502500534057617,-109.39250183105467,17.7450008392334
7.2759433634552035,0.5160599946975708,-0.4126040041446686,0.1566479951143264,-13.63249969482422,-115.39500427246094,56.26250076293945
7.296042654514472,0.5255759954452515,-0.175924003124237,0.1180959939956665,-38.90250015258789,-76.42250061035156,75.93250274658203
7.31614194557374,0.693448007106781,-0.2349720001220703,0.0361119993031024,-65.81749725341797,-81.55000305175781,55.43999862670898
7.3362412366330085,0.8103240132331848,-0.5080080032348633,0.0387960001826286,-34.807498931884766,-172.86500549316406,11.234999656677246
7.356340527692277,0.8610759973526001,-0.7051599621772766,0.090279996395111,8.487500190734863,-264.5824890136719,5.389999866485596
7.376439818751545,0.832040011882782,-0.6551399827003479,0.1022359952330589,49.50749969482422,-286.2650146484375,33.407501220703125
7.3965391098108135,0.9123159646987916,-0.5275279879570007,0.1483519971370697,80.8324966430664,-262.7975158691406,64.45249938964844
7.416638400870082,1.052616000175476,-0.2708399891853332,0.1490840017795562,119.45500183105467,-240.58999633789065,71.52249908447266
7.43673769192935,0.9703879952430724,-0.0334279984235763,0.1378600001335144,150.36000061035156,-227.20249938964844,45.86750030517578
7.4568369829886185,0.868395984172821,-0.1127279996871948,0.157379999756813,158.8125,-186.7425079345703,-7.210000038146973
7.476936274047887,0.8432639837265015,-0.4682359993457794,0.0832040011882782,140.59500122070312,-110.58250427246094,-37.69499969482422
7.497035565107155,0.8957239985466003,-0.5446079969406128,-0.0607559978961944,122.44750213623048,-25.987499237060547,-25.637500762939453
7.5171348561664235,1.0460280179977417,-0.4543280005455017,-0.1407880038022995,113.10250091552734,26.582500457763672,-21.73500061035156
7.537234147225692,1.0518839359283447,-0.4811680018901825,-0.17323999106884,95.18250274658205,50.872501373291016,-25.375
7.55733343828496,0.9347639679908752,-0.5433880090713501,-0.2635200023651123,86.87000274658203,66.86750030517578,-30.607500076293945
7.5774327293442285,1.0216280221939087,-0.5682759881019592,-0.3816159963607788,76.14250183105469,112.1750030517578,-20.3700008392334
7.597532020403497,1.1736400127410889,-0.7312679886817932,-0.4238280057907104,49.29750061035156,115.9375,-9.730000495910645
7.617631311462765,0.9886879920959472,-0.5712040066719055,-0.4899519979953766,43.48749923706055,107.59000396728516,8.680000305175781
7.6377306025220335,0.9250040054321288,-0.4570119976997375,-0.4831199944019317,0.1225000023841857,129.53500366210938,37.11750030517578
7.657829893581302,0.8979200124740601,-0.3259840011596679,-0.4716520011425018,-8.27750015258789,138.9499969482422,27.19499969482422
7.67792918464057,0.8847439885139465,-0.4553039968013763,-0.3847880065441131,2.2225000858306885,118.9124984741211,-19.40749931335449
7.6980284756998385,0.9879559874534608,-0.6568480134010315,-0.3923519849777221,14.90999984741211,75.86250305175781,-42.10499954223633
7.718127766759107,0.8759599924087524,-0.4804359972476959,-0.416263997554779,-17.797500610351562,53.98749923706055,-7.227499961853027
7.738227057818375,0.7986119985580444,-0.3625839948654175,-0.3784439861774444,-43.084999084472656,35.0,-4.445000171661377
7.7583263488776435,0.7856799960136414,-0.3818599879741668,-0.2981680035591125,-61.63500213623047,13.352499961853027,-12.390000343322754
7.778425639936912,0.8303319811820984,-0.6100000143051147,-0.3206160068511963,-92.2074966430664,15.154999732971191,-14.105000495910645
7.79852493099618,0.8832799792289734,-0.7317559719085693,-0.280599981546402,-49.244998931884766,10.1850004196167,-15.942500114440918
7.8186242220554485,0.9108519554138184,-0.5280159711837769,-0.1061399951577186,-32.44499969482422,-9.170000076293944,10.797499656677246
7.838723513114717,0.9101200103759766,-0.2359479963779449,-0.0880839973688125,-29.225000381469727,-23.712499618530277,13.789999961853027
7.858822804173985,0.9740479588508606,-0.1156559959053993,-0.0990639999508857,-52.46500015258789,-7.507500171661377,-8.697500228881836
7.8789220952332535,0.9691680073738098,-0.2037400007247924,-0.1578679978847503,-84.50749969482422,20.982500076293945,-36.85499954223633
7.899021386292522,0.9594079852104188,-0.5660799741744995,-0.1925159990787506,-92.19000244140624,22.924999237060547,-61.31999969482422
7.91912067735179,0.9642879962921144,-0.6910079717636108,-0.3010959923267364,-55.807498931884766,6.894999980926514,-55.5625
7.9392199684110585,0.9142679572105408,-0.7229719758033752,-0.3301320075988769,-29.90749931335449,11.392499923706056,-23.64249992370605
7.959319259470327,0.9154880046844482,-0.4323679804801941,-0.4823879897594452,-47.932498931884766,75.00499725341797,18.287500381469727
7.979418550529595,0.855463981628418,-0.2559559941291809,-0.2408279925584793,-110.12750244140624,103.37249755859376,37.48500061035156
7.9995178415888635,0.7429800033569336,-0.3074399828910827,-0.1224879994988441,-152.0399932861328,-1.75,-10.97249984741211
8.019617132648133,0.8820599913597107,-0.5651040077209473,-0.7115039825439453,-110.37249755859376,-147.15750122070312,-73.18499755859375
8.039716423707402,1.2129240036010742,-0.8805959820747375,-0.4582319855690002,39.602500915527344,-253.75,-110.87999725341795
8.059815714766671,1.1868159770965576,-1.0265079736709597,-0.0688079968094825,44.15250015258789,-232.01499938964844,-39.28749847412109
8.07991500582594,1.032364010810852,-0.5465599894523621,-0.1090679988265037,34.352500915527344,-213.65750122070312,38.587501525878906
8.10001429688521,1.0616439580917358,0.0634399950504303,-0.4884879887104034,164.5175018310547,-279.9825134277344,14.420000076293944
8.120113587944479,1.0177240371704102,-0.5853559970855713,-0.4187040030956268,209.28250122070312,-277.54998779296875,-45.02750015258789
8.140212879003748,0.6102439761161804,-0.5814520120620728,-0.1039439961314201,161.3675079345703,-204.1374969482422,-6.912499904632568
8.160312170063017,0.6292759776115417,-0.2425359934568405,-0.4543280005455017,17.010000228881836,-97.54499816894533,100.57250213623048
8.180411461122286,0.6832000017166138,-0.0065879998728632,-0.5275279879570007,-20.352500915527344,-75.70500183105469,6.894999980926514
8.200510752181556,0.9496479630470276,-0.3047559857368469,-0.5999959707260132,-9.5024995803833,-65.50250244140625,-73.55249786376953
8.220610043240825,0.5960919857025146,-0.8457039594650269,-0.5480239987373352,-21.052499771118164,-50.57500076293945,-96.75749969482422
8.240709334300094,0.6595320105552673,-0.880840003490448,-0.5411919951438904,-38.0099983215332,-69.77249908447266,-45.97249984741211
8.260808625359363,0.7315120100975037,-0.7793359756469727,-0.5111799836158752,-15.8725004196167,-111.3000030517578,10.5
8.280907916418633,0.532651960849762,-0.5119119882583618,-0.3598999977111816,13.59749984741211,-119.2624969482422,68.00499725341797
8.301007207477902,0.7217519879341125,-0.4928799867630005,-0.3540439903736114,40.23250198364258,-74.86499786376953,72.22250366210938
8.321106498537171,0.8515599966049194,-0.3530679941177368,-0.2198439985513687,110.66999816894533,-27.70249938964844,45.13249969482422
8.34120578959644,0.4518879950046539,-0.1934919953346252,-0.1146799996495246,45.8849983215332,75.47750091552734,30.76499938964844
8.36130508065571,0.6505039930343628,-0.2149640023708343,-0.3154920041561126,-15.627500534057615,183.3300018310547,-20.440000534057617
8.381404371714979,1.0201640129089355,-0.5914559960365295,-0.4528639912605285,-4.619999885559082,261.3275146484375,-70.50749969482422
8.401503662774248,1.476199984550476,-0.7407839894294739,-0.5790119767189026,-9.292500495910645,296.3800048828125,-56.97999954223633
8.421602953833517,1.1746159791946411,-0.5924319624900818,-0.6263479590415955,-26.092500686645508,301.5249938964844,-9.887499809265137
8.441702244892786,0.9823439717292786,-0.7895839810371399,-0.6917399764060974,-9.869999885559082,283.4825134277344,10.482500076293944
8.461801535952056,0.8557080030441284,-0.5768159627914429,-0.6097559928894043,-37.95750045776367,308.4200134277344,73.02750396728516
8.481900827011325,0.8891359567642212,-0.4123599827289581,-0.5992639660835266,-49.70000076293945,301.9974975585937,112.66500091552734
8.502000118070594,0.9049959778785706,-0.3023159801959991,-0.3657560050487518,-27.177499771118164,240.69500732421875,115.43000030517578
8.522099409129863,0.880840003490448,-0.273279994726181,-0.342087984085083,-4.164999961853027,162.7675018310547,86.9749984741211
8.542198700189132,0.7563999891281128,-0.5709599852561951,-0.5087400078773499,25.14750099182129,51.6775016784668,26.774999618530277
8.562297991248402,0.6295199990272522,-0.5529040098190308,-0.510204017162323,73.91999816894531,-50.04999923706055,-9.25749969482422
8.58239728230767,0.4028439819812774,-0.7088199853897095,-0.4999559819698334,31.36000061035156,-121.5374984741211,16.135000228881836
8.60249657336694,0.5299679636955261,-0.8022719621658325,-0.1539639979600906,19.38999938964844,-165.91749572753906,41.42250061035156
8.62259586442621,0.7488359808921814,-0.9601399898529052,0.0158599987626075,69.44000244140625,-184.9575042724609,49.57749938964844
8.642695155485479,0.7903159856796265,-0.9818559885025024,0.2998760044574737,180.1625061035156,-199.8325042724609,45.23749923706055
8.662794446544748,1.1848639249801636,-0.4999559819698334,0.2215519994497299,224.2449951171875,-105.75250244140624,61.845001220703125
8.682893737604017,0.8615639805793762,-0.41211599111557,0.0270840004086494,134.4875030517578,-3.377500057220459,66.56999969482422
8.702993028663286,1.0777479410171509,-0.3225679993629455,0.4628680050373077,96.1449966430664,59.9375,45.622501373291016
8.723092319722555,0.9713639616966248,-0.4374919831752777,0.2025199979543686,26.809999465942383,111.8249969482422,30.55500030517578
8.743191610781825,0.358924001455307,-0.2925559878349304,-0.2281399965286255,-1.2424999475479126,160.64999389648438,13.230000495910645
8.763290901841094,0.4370039999485016,-0.1795839965343475,0.0551439970731735,-29.08500099182129,145.6699981689453,-51.747501373291016
8.783390192900363,0.8181319832801819,-0.5360679626464844,-0.2195999920368194,-82.89749908447266,23.11750030517578,-163.08250427246094
8.803489483959632,0.9064599871635436,-0.5963360071182251,-0.1271239966154098,-92.4175033569336,-9.852499961853027,-159.4425048828125
8.823588775018901,1.004547953605652,-0.6900320053100586,-0.0505079999566078,-108.72750091552734,-32.165000915527344,-145.33749389648438
8.84368806607817,1.0577399730682373,-0.8566839694976807,-0.0624639987945556,-59.39500045776367,-0.6825000047683716,-128.8350067138672
8.86378735713744,0.977952003479004,-0.7588399648666382,0.1747040003538131,-6.072500228881836,45.744998931884766,-100.1875
8.88388664819671,0.9594079852104188,-0.7622559666633606,0.0422119982540607,-23.415000915527344,82.82749938964844,-66.3949966430664
8.903985939255978,0.9845399856567384,-0.6873480081558228,-0.224480003118515,-37.04750061035156,108.44750213623048,-36.92499923706055
8.924085230315248,0.8520479798316956,-0.569983959197998,-0.3123199939727783,-24.09749984741211,103.66999816894533,-7.804999828338623
8.944184521374517,0.6814919710159302,-0.4123599827289581,-0.2737680077552795,-10.0625,57.27750015258789,3.5350000858306885
8.964283812433786,0.8478999733924866,-0.285968005657196,-0.1903200000524521,4.164999961853027,16.572500228881836,-15.050000190734863
8.984383103493055,0.929152011871338,-0.3154920041561126,-0.0724679976701736,4.585000038146973,-8.452500343322754,-36.01499938964844
9.004482394552324,0.9533079862594604,-0.4245599806308746,0.152988001704216,8.3125,-12.21500015258789,-44.06499862670898
9.024581685611594,0.990395963191986,-0.4618919789791107,0.0470919981598854,9.274999618530272,5.284999847412109,-32.54999923706055
9.044680976670863,0.9957639575004578,-0.4604279994964599,0.0302559994161129,10.307499885559082,13.09000015258789,-9.817500114440918
9.064780267730132,0.9462319612503052,-0.3489199876785278,-0.0422119982540607,10.13249969482422,12.1274995803833,13.335000038146973
9.084879558789401,0.9259799718856812,-0.2461960017681121,0.0173240005970001,17.46500015258789,3.6050000190734863,13.545000076293944
9.10497884984867,0.9437919855117798,-0.2635200023651123,0.0778359994292259,16.99250030517578,1.4874999523162842,-10.8149995803833
9.12507814090794,1.006500005722046,-0.3613640069961548,0.1205359995365142,9.327500343322754,7.157500267028809,-33.21500015258789
9.145177431967209,1.051151990890503,-0.4187040030956268,0.0436760000884532,3.307500123977661,12.477499961853027,-35.85750198364258
9.165276723026478,1.0404160022735596,-0.4060159921646118,0.0158599987626075,0.2800000011920929,7.332499980926514,-25.042499542236328
9.185376014085747,1.0021079778671265,-0.2325319945812225,0.0422119982540607,1.4874999523162842,-0.262499988079071,-13.947500228881836
9.205475305145017,1.0047919750213623,-0.0351359993219375,0.1015039980411529,9.029999732971191,-2.1524999141693115,-26.89750099182129
9.225574596204286,1.0721359252929688,0.0644159987568855,0.1259039938449859,9.029999732971191,4.829999923706055,-54.915000915527344
9.245673887263555,1.0587159395217896,0.2505879998207092,0.1127279996871948,13.6850004196167,18.165000915527344,-78.12000274658203
9.265773178322824,0.9830759763717652,0.6724640130996704,0.2032520025968551,32.619998931884766,33.58250045776367,-124.44249725341795
9.285872469382094,0.9396439790725708,0.8444839715957642,0.1844639927148819,32.060001373291016,54.07500076293945,-232.69749450683597
9.305971760441363,0.9547719955444336,0.5053240060806274,0.1395680010318756,25.357500076293945,75.30249786376953,-349.2650146484375
9.326071051500632,1.0757960081100464,-0.023667998611927,0.2015440016984939,10.97249984741211,87.65750122070312,-392.7350158691406
9.346170342559901,0.994055986404419,-0.3967439830303192,0.0741759985685348,-21.122499465942383,94.01000213623048,-350.0
9.36626963361917,1.0477359294891355,-0.6222000122070312,0.1642120033502578,-25.042499542236328,88.0250015258789,-252.4375
9.38636892467844,1.065060019493103,-0.2381439954042434,0.1339560002088546,-1.190000057220459,43.907501220703125,-5.880000114440918
9.406468215737709,0.9703879952430724,0.1481079906225204,0.2266760021448135,10.850000381469728,21.4375,43.942501068115234
9.426567506796978,0.9821000099182128,0.3657560050487518,0.3794199824333191,14.90999984741211,8.487500190734863,36.68000030517578
9.446666797856247,1.050176024436951,0.4677479863166809,0.5499759912490845,9.362500190734863,11.550000190734863,-10.552499771118164
9.466766088915517,1.1116639375686646,0.4096759855747223,0.5370439887046814,-11.130000114440918,37.48500061035156,-71.12000274658203
9.486865379974786,1.2148759365081787,0.1981279999017715,0.3801519870758056,-26.4950008392334,55.352500915527344,-107.76499938964844
9.506964671034055,1.234395980834961,0.0397720001637935,0.2923119962215423,-23.677499771118164,48.352500915527344,-102.60250091552734
9.527063962093324,1.1497279405593872,0.0893040001392364,0.3267160058021545,-9.69499969482422,29.78499984741211,-74.86499786376953
9.547163253152593,1.071403980255127,0.1280999928712844,0.4067479968070984,-4.21750020980835,14.84000015258789,-55.94750213623047
9.567262544211863,1.026263952255249,0.183243989944458,0.4511559903621673,-6.755000114440918,10.237500190734863,-36.977500915527344
9.587361835271132,0.9708759784698486,0.2754760086536407,0.4352959990501404,-4.287499904632568,14.822500228881836,-17.832500457763672
9.607461126330401,0.87254399061203,0.3455039858818054,0.3781999945640564,-2.2049999237060547,15.137499809265137,-11.672499656677246
9.62756041738967,0.7932440042495728,0.4021120071411133,0.3647799789905548,-1.75,11.987500190734863,-17.395000457763672
9.64765970844894,0.7895839810371399,0.4086999893188476,0.3957679867744446,1.6449999809265137,9.100000381469728,-28.57749938964844
9.667758999508209,0.8547319769859314,0.3508719801902771,0.3811279833316803,-1.5750000476837158,11.30500030517578,-34.352500915527344
9.687858290567478,0.8366760015487671,0.3679519891738891,0.3808839917182922,-8.207500457763672,7.752500057220459,-27.684999465942383
9.707957581626747,0.7917799949645996,0.4804359972476959,0.3984519839286804,-7.122499942779541,-1.5924999713897705,-22.399999618530277
9.728056872686016,0.7793359756469727,0.4767760038375854,0.4008919894695282,-3.7274999618530273,-6.457499980926514,-30.817501068115234
9.748156163745286,0.7976359724998474,0.4065040051937103,0.3967439830303192,-2.012500047683716,-3.5,-38.4474983215332
9.768255454804555,0.7995879650115967,0.3821039795875549,0.3933279812335968,0.2100000083446502,-0.8224999904632568,-33.11000061035156
9.788354745863824,0.7593280076980591,0.3730759918689728,0.3720999956130981,-1.0850000381469729,-0.6299999952316284,-21.752500534057617
9.808454036923093,0.6929599642753601,0.4177280068397522,0.3557519912719726,-4.357500076293945,-6.632500171661377,-7.472499847412109
9.828553327982362,0.6844199895858765,0.5075199604034424,0.2703520059585571,-2.6424999237060547,-11.88249969482422,2.6424999237060547
9.848652619041632,0.5990200042724609,0.4499360024929046,0.244731992483139,7.0,-24.56999969482422,4.077499866485596
9.868751910100901,0.3577039837837219,0.2718159854412079,0.023667998611927,20.07250022888184,-36.837501525878906,0.962499976158142
9.88885120116017,0.1122400015592575,0.3008520007133484,-0.0387960001826286,51.53749847412109,-67.84750366210938,-2.240000009536743
9.90895049221944,0.2213079929351806,0.1683599948883056,0.2393639981746673,66.34249877929688,-61.98500061035156,-7.595000267028809
9.929049783278709,0.1490840017795562,0.0617319978773593,0.090279996395111,107.15250396728516,-37.02999877929688,-46.11249923706055
9.949149074337978,0.0168359987437725,0.0883279964327812,0.1285879909992218,69.38749694824219,8.609999656677246,-61.407501220703125
9.969248365397247,-0.1407880038022995,-0.0034159999340772,0.0229359995573759,4.340000152587891,70.69999694824219,-10.744999885559082
9.989347656456516,-0.1424959897994995,-0.0727119967341423,-0.0212280005216598,27.405000686645508,94.65750122070312,-4.059999942779541
10.009446947515785,-0.1161440014839172,0.0270840004086494,-0.0100039998069405,61.442501068115234,107.85250091552734,2.2049999237060547
10.029546238575055,-0.0068319998681545,0.0407480001449584,0.0224479995667934,22.207500457763672,125.2125015258789,23.747499465942383
10.049645529634324,0.046604000031948,0.0053679998964071,-0.010491999797523,-28.192501068115234,153.00250244140625,53.060001373291016
10.069744820693593,-0.0161039996892213,-0.0287919994443655,-0.0805199965834617,-32.91749954223633,180.96749877929688,68.3550033569336
10.089844111752862,0.0085399998351931,0.0222040005028247,-0.0107359997928142,-14.40250015258789,201.65249633789065,66.25499725341797
10.109943402812132,0.0756400004029274,-0.0231800004839897,-0.0014639999717473,-53.95249938964844,218.34750366210935,76.52750396728516
10.1300426938714,0.0929640009999275,-0.0204959996044635,-0.0141519997268915,-70.13999938964844,240.06500244140625,86.44999694824219
10.15014198493067,0.0790559947490692,-0.0168359987437725,-0.0117119997739791,-57.24250030517578,258.6499938964844,86.37999725341797
10.17024127598994,0.0778359994292259,-0.0056119998916983,0.0229359995573759,-48.15999984741211,270.3924865722656,81.98750305175781
10.190340567049208,0.0609999969601631,0.0100039998069405,0.0827159956097602,-46.567501068115234,272.5450134277344,78.3125
10.210439858108478,0.0624639987945556,0.046604000031948,0.1241960003972053,-39.619998931884766,265.9125061035156,75.98500061035156
10.230539149167747,0.0012199999764561,-0.0068319998681545,0.1105320006608963,-27.57999992370605,254.1000061035156,83.82499694824219
10.250638440227016,-0.0053679998964071,0.0285479985177516,0.1590880006551742,9.607500076293944,239.75,78.15499877929688
10.270737731286285,1.195356011390686,2.020807981491089,3.656339883804321,-147.6125030517578,266.5425109863281,92.54000091552734
10.290837022345555,-1.5899039506912231,-1.377135992050171,-3.24617600440979,8.417500495910645,-147.6824951171875,40.3025016784668
10.310936313404824,-0.0656360015273094,-0.1737279891967773,-1.0731120109558103,306.9850158691406,-469.5075073242188,-23.57250022888184
10.331035604464093,0.2569319903850555,0.181779995560646,0.3174439966678619,528.9550170898438,-505.3999938964844,72.5199966430664
10.351134895523362,0.5582720041275024,0.6997919678688049,-0.0712479948997497,563.9199829101562,-431.5150146484375,317.0824890136719
10.371234186582631,0.8461920022964478,1.066767930984497,0.5392400026321411,452.8999938964844,-220.2725067138672,374.9725036621094
10.3913334776419,0.5626639723777771,0.2771840095520019,0.2659600079059601,71.17250061035156,-0.3849999904632568,349.82501220703125
10.41143276870117,0.0588039979338645,0.2537599802017212,-0.0412359982728958,-162.5399932861328,106.68000030517578,386.3825073242188
10.431532059760439,0.002195999957621,0.1781200021505355,0.0275719985365867,-297.0625,107.0824966430664,373.572509765625
10.451631350819708,0.0141519997268915,0.2020319998264312,0.0439199991524219,-359.55499267578125,136.0800018310547,313.3550109863281
10.471730641878978,1.2402520179748535,-0.8474119901657104,0.4862920045852661,-358.3475036621094,226.4499969482422,235.33999633789065
10.491829932938247,0.8286240100860596,-0.4509119987487793,0.2928000092506408,-200.33999633789065,499.1700134277344,334.197509765625
10.511929223997516,-0.2034959942102432,-0.5924319624900818,-0.3789319992065429,-4.550000190734863,573.3699951171875,316.57501220703125
10.532028515056785,-0.305976003408432,-2.74402403831482,-0.1080919951200485,448.3150024414063,573.3350219726562,155.7675018310547
10.552127806116054,-2.557852029800415,1.777783989906311,4.067235946655273,495.4425048828125,328.2825012207031,-109.93499755859376
10.572227097175324,0.052216000854969,0.2544919848442077,0.6097559928894043,299.95001220703125,-164.09750366210938,-141.20750427246094
10.592326388234593,0.3467240035533905,0.8530240058898926,0.8854759931564331,238.07000732421875,0.5950000286102295,-101.5875015258789
10.612425679293862,0.0834480002522468,0.9040200114250184,0.8825479745864868,24.482500076293945,96.91500091552734,-50.78499984741211
10.632524970353131,0.1019919961690902,0.5541239976882935,0.9237839579582214,-111.86000061035156,31.21999931335449,15.592499732971191
10.6526242614124,0.0914999991655349,0.1229759976267814,1.0116239786148071,-114.59000396728516,23.1875,37.02999877929688
10.67272355247167,0.0827159956097602,0.0688079968094825,1.0043039321899414,-101.3249969482422,28.4375,23.852500915527344
10.692822843530939,0.0939399972558021,0.0356239974498748,1.0499320030212402,-71.33000183105469,5.25,0.4550000131130218
10.712922134590208,0.0588039979338645,0.1612839996814727,1.0128439664840698,-16.082500457763672,0.0525000020861625,-6.002500057220459
10.733021425649477,0.1027240008115768,0.1793399900197982,0.9923479557037354,-4.269999980926514,-2.572499990463257,-2.852499961853028
10.753120716708747,0.0802759975194931,0.1376159936189651,1.009671926498413,-6.335000038146973,1.1725000143051147,0.3149999976158142
10.773220007768016,0.0885719954967498,0.1615279912948608,1.0028399229049685,6.632500171661377,-0.1749999970197677,0.4375
10.793319298827285,0.0888160020112991,0.1751919984817505,0.9952759742736816,9.904999732971191,-0.1050000041723251,0.5249999761581421
10.813418589886554,0.0897919982671737,0.1698240041732788,1.0008879899978638,9.397500038146973,0.2800000011920929,0.6474999785423279
10.833517880945823,0.0919879972934722,0.1932480037212371,0.9921039938926696,10.307499885559082,-0.5600000023841858,-0.1924999952316284
10.853617172005093,0.0932080000638961,0.2052039951086044,0.9889319539070128,1.7675000429153442,-0.262499988079071,-0.5249999761581421
10.873716463064362,0.0890600010752677,0.1742160022258758,0.998691976070404,-8.27750015258789,1.0149999856948853,-0.2975000143051147
10.893815754123631,0.0880839973688125,0.1659199893474578,1.0008879899978638,-6.860000133514404,0.7875000238418579,-0.5074999928474426
10.9139150451829,0.0878399983048439,0.1634799987077713,1.0008879899978638,-2.799999952316284,0.4900000095367431,-0.3675000071525574
10.93401433624217,0.0890600010752677,0.1710439920425415,0.9984479546546936,1.2949999570846558,0.1749999970197677,-0.0525000020861625
10.954113627301439,0.0880839973688125,0.1705559939146042,0.9984479546546936,2.765000104904175,0.1924999952316284,0.1924999952316284
10.974212918360708,0.0895479992032051,0.1790959984064102,0.9969840049743652,3.920000076293945,0.0350000001490116,0.1050000041723251
10.994312209419977,0.0910120010375976,0.1834879964590072,0.9950319528579712,1.662500023841858,0.1225000023841857,-0.1574999988079071
11.014411500479246,0.0883279964327812,0.1749479919672012,0.9979599714279176,-1.2599999904632568,0.3675000071525574,-0.2800000011920929
11.034510791538516,0.0897919982671737,0.1781200021505355,0.9962520003318788,-1.680000066757202,0.2800000011920929,-0.4375
11.054610082597785,0.0888160020112991,0.1678719967603683,0.9996680021286012,-2.432500123977661,0.4724999964237213,-0.3149999976158142
11.074709373657054,0.0885719954967498,0.1695799976587295,0.9989359974861144,-0.0525000020861625,0.2975000143051147,-0.1400000005960464
11.094808664716323,0.0895479992032051,0.1727519929409027,0.9979599714279176,1.627500057220459,0.262499988079071,0.0175000000745058
11.114907955775593,0.0895479992032051,0.1790959984064102,0.9967399835586548,0.875,0.2450000047683715,-0.1574999988079071
11.135007246834862,0.0885719954967498,0.1744599938392639,0.9977160096168518,-0.7175000309944153,0.2975000143051147,-0.262499988079071
11.155106537894131,0.0880839973688125,0.1703120023012161,0.9984479546546936,-0.9100000262260436,0.3499999940395355,-0.2450000047683715
11.1752058289534,0.0893040001392364,0.1720200031995773,0.9977160096168518,0.5074999928474426,0.2450000047683715,-0.1574999988079071
11.19530512001267,0.0895479992032051,0.1729959994554519,0.998203992843628,1.0850000381469729,0.262499988079071,-0.0525000020861625
11.215404411071939,0.0897919982671737,0.177387997508049,0.9964959621429444,1.1725000143051147,0.262499988079071,-0.0525000020861625
11.235503702131208,0.0900359973311424,0.1754359900951385,0.9979599714279176,0.1400000005960464,0.262499988079071,-0.1574999988079071
11.255602993190477,0.0895479992032051,0.1747040003538131,0.998203992843628,-0.2800000011920929,0.262499988079071,-0.2450000047683715
11.275702284249746,0.0893040001392364,0.1739719957113266,0.9984479546546936,-0.5774999856948853,0.3675000071525574,-0.262499988079071
11.295801575309016,0.0893040001392364,0.17323999106884,0.9984479546546936,0.0175000000745058,0.262499988079071,-0.2100000083446502
11.315900866368285,0.0895479992032051,0.17323999106884,0.9984479546546936,0.5425000190734863,0.2975000143051147,-0.0700000002980232
11.336000157427554,0.0888160020112991,0.1749479919672012,0.9964959621429444,0.8400000333786011,0.2975000143051147,-0.0700000002980232
11.356099448486823,0.0897919982671737,0.175924003124237,0.9977160096168518,0.5425000190734863,0.2800000011920929,-0.1050000041723251
11.376198739546092,0.0900359973311424,0.1747040003538131,0.9977160096168518,-0.0175000000745058,0.2975000143051147,-0.1574999988079071
11.396298030605362,0.0893040001392364,0.1747040003538131,0.998203992843628,-0.2800000011920929,0.2800000011920929,-0.2275000065565109
11.41639732166463,0.0897919982671737,0.1744599938392639,0.998691976070404,-0.1574999988079071,0.262499988079071,-0.2275000065565109
11.4364966127239,0.0890600010752677,0.1737279891967773,0.9979599714279176,0.3149999976158142,0.2450000047683715,-0.1225000023841857
11.45659590378317,0.0893040001392364,0.1747040003538131,0.9979599714279176,0.6650000214576721,0.332500010728836,-0.1225000023841857
11.476695194842438,0.0900359973311424,0.1749479919672012,0.9974719882011414,0.5425000190734863,0.2450000047683715,-0.1400000005960464
11.496794485901708,0.0897919982671737,0.1754359900951385,0.9977160096168518,0.1924999952316284,0.2975000143051147,-0.1749999970197677
11.516893776960977,0.0893040001392364,0.1742160022258758,0.9979599714279176,-0.1225000023841857,0.3149999976158142,-0.2275000065565109
11.536993068020246,0.0890600010752677,0.1737279891967773,0.998691976070404,-0.0874999985098838,0.2800000011920929,-0.2275000065565109
11.557092359079515,0.0893040001392364,0.1749479919672012,0.998203992843628,0.1749999970197677,0.262499988079071,-0.1749999970197677
11.577191650138785,0.0888160020112991,0.17323999106884,0.9979599714279176,0.4550000131130218,0.2275000065565109,-0.1225000023841857
11.597290941198054,0.0897919982671737,0.1749479919672012,0.9977160096168518,0.4900000095367431,0.2800000011920929,-0.1574999988079071
11.617390232257323,0.0890600010752677,0.1749479919672012,0.9974719882011414,0.2975000143051147,0.2100000083446502,-0.1574999988079071
11.637489523316592,0.0888160020112991,0.1751919984817505,0.9979599714279176,0.0700000002980232,0.262499988079071,-0.1749999970197677
11.657588814375861,0.0888160020112991,0.1744599938392639,0.998203992843628,-0.0700000002980232,0.2975000143051147,-0.2100000083446502
11.67768810543513,0.0890600010752677,0.1744599938392639,0.9984479546546936,0.1400000005960464,0.262499988079071,-0.1749999970197677
11.6977873964944,0.0890600010752677,0.1742160022258758,0.9984479546546936,0.3499999940395355,0.2800000011920929,-0.1225000023841857
11.71788668755367,0.0900359973311424,0.1751919984817505,0.9977160096168518,0.5074999928474426,0.2450000047683715,-0.1400000005960464
11.737985978612938,0.0893040001392364,0.1749479919672012,0.9979599714279176,0.2975000143051147,0.2975000143051147,-0.1924999952316284
11.758085269672208,0.0890600010752677,0.1737279891967773,0.9984479546546936,0.0700000002980232,0.2450000047683715,-0.1924999952316284
11.778184560731477,0.0895479992032051,0.1737279891967773,0.9979599714279176,0.1749999970197677,0.2975000143051147,-0.1749999970197677
11.798283851790746,0.0895479992032051,0.1739719957113266,0.9979599714279176,0.3149999976158142,0.2800000011920929,-0.1749999970197677
11.818383142850015,0.0895479992032051,0.1742160022258758,0.998203992843628,0.3849999904632568,0.262499988079071,-0.1400000005960464
11.838482433909284,0.0885719954967498,0.1747040003538131,0.9979599714279176,0.2800000011920929,0.2800000011920929,-0.1574999988079071
11.858581724968554,0.0888160020112991,0.1747040003538131,0.9972279667854308,0.1749999970197677,0.2800000011920929,-0.1924999952316284
11.878681016027823,0.0897919982671737,0.1742160022258758,0.9979599714279176,0.1050000041723251,0.2275000065565109,-0.1749999970197677
11.898780307087092,0.0895479992032051,0.1729959994554519,0.998203992843628,0.1225000023841857,0.2975000143051147,-0.1749999970197677
11.918879598146361,0.0897919982671737,0.17323999106884,0.9977160096168518,0.2275000065565109,0.2100000083446502,-0.1574999988079071
11.93897888920563,0.0890600010752677,0.1742160022258758,0.9979599714279176,0.332500010728836,0.262499988079071,-0.1574999988079071
11.9590781802649,0.0888160020112991,0.1747040003538131,0.998203992843628,0.332500010728836,0.262499988079071,-0.1574999988079071
11.979177471324169,0.0885719954967498,0.1739719957113266,0.998691976070404,0.1749999970197677,0.2800000011920929,-0.1574999988079071
11.999276762383438,0.0888160020112991,0.1751919984817505,0.9974719882011414,0.1924999952316284,0.2800000011920929,-0.2100000083446502
12.019376053442707,0.0900359973311424,0.1734839975833892,0.9989359974861144,0.1400000005960464,0.2800000011920929,-0.1924999952316284
12.039475344501977,0.0893040001392364,0.1737279891967773,0.9974719882011414,0.2800000011920929,0.3149999976158142,-0.1574999988079071
12.059574635561246,0.0893040001392364,0.17323999106884,0.9984479546546936,0.2975000143051147,0.2800000011920929,-0.1574999988079071
12.079673926620515,0.0890600010752677,0.1744599938392639,0.998691976070404,0.332500010728836,0.2450000047683715,-0.1749999970197677
12.099773217679784,0.0893040001392364,0.1744599938392639,0.9984479546546936,0.1924999952316284,0.2800000011920929,-0.1574999988079071
12.119872508739054,0.0890600010752677,0.1744599938392639,0.9979599714279176,0.2275000065565109,0.2450000047683715,-0.2275000065565109
12.139971799798323,0.0888160020112991,0.1725080013275146,0.998203992843628,0.1749999970197677,0.2800000011920929,-0.1924999952316284
12.160071090857592,0.0895479992032051,0.1737279891967773,0.9984479546546936,0.2450000047683715,0.2450000047683715,-0.2100000083446502
12.180170381916861,0.0895479992032051,0.1744599938392639,0.9989359974861144,0.2975000143051147,0.2275000065565109,-0.1924999952316284
12.20026967297613,0.0900359973311424,0.1742160022258758,0.9974719882011414,0.2800000011920929,0.2800000011920929,-0.1574999988079071
12.2203689640354,0.0888160020112991,0.1734839975833892,0.9974719882011414,0.1749999970197677,0.2800000011920929,-0.1749999970197677
12.240468255094669,0.0895479992032051,0.1739719957113266,0.9974719882011414,0.1924999952316284,0.2975000143051147,-0.1574999988079071
12.260567546153938,0.0885719954967498,0.1739719957113266,0.9977160096168518,0.1749999970197677,0.332500010728836,-0.1749999970197677
12.280666837213207,0.0897919982671737,0.1739719957113266,0.9979599714279176,0.2275000065565109,0.2450000047683715,-0.1400000005960464
12.300766128272477,0.0895479992032051,0.1747040003538131,0.9977160096168518,0.262499988079071,0.2800000011920929,-0.1400000005960464
12.320865419331746,0.0895479992032051,0.1744599938392639,0.9977160096168518,0.262499988079071,0.2800000011920929,-0.1400000005960464
12.340964710391015,0.0895479992032051,0.1747040003538131,0.9977160096168518,0.2450000047683715,0.3499999940395355,-0.1749999970197677
12.361064001450284,0.0802759975194931,0.1634799987077713,0.990884006023407,-0.7699999809265137,0.5600000023841858,-0.0175000000745058
12.381163292509553,0.0946719944477081,0.1776320040225982,1.0094280242919922,0.4375,-0.0525000020861625,-0.3499999940395355
12.401262583568823,0.0883279964327812,0.1729959994554519,0.9974719882011414,-0.4550000131130218,0.6474999785423279,-0.0874999985098838
12.421361874628092,0.090279996395111,0.1725080013275146,0.9964959621429444,0.0175000000745058,0.1574999988079071,-0.2275000065565109
12.441461165687361,0.0897919982671737,0.1761679947376251,0.9972279667854308,0.3849999904632568,0.3499999940395355,-0.1050000041723251
12.46156045674663,0.0900359973311424,0.1705559939146042,0.9996680021286012,-0.0700000002980232,0.2800000011920929,-0.1749999970197677
12.4816597478059,0.0897919982671737,0.1776320040225982,0.9969840049743652,0.1749999970197677,0.2800000011920929,-0.1924999952316284
12.501759038865169,0.0895479992032051,0.1686040014028549,0.9999119639396667,-0.3849999904632568,0.332500010728836,-0.0874999985098838
12.521858329924438,0.0888160020112991,0.1788519918918609,0.9964959621429444,0.4200000166893005,0.2450000047683715,-0.2100000083446502
12.541957620983707,0.1246839985251426,0.3120760023593902,0.9891759753227234,-10.0625,1.1549999713897705,-6.002500057220459
12.562056912042976,0.085887998342514,0.2918239831924438,0.9174399971961976,-96.96749877929688,3.640000104904175,-25.637500762939453
12.582156203102246,0.047580000013113,0.0287919994443655,1.0801880359649658,-150.79750061035156,8.207500457763672,-24.622499465942383
12.602255494161515,0.0570959970355033,0.0019519999623298,1.0287039279937744,-83.49250030517578,-2.4674999713897705,-21.717500686645508
12.622354785220784,0.0348920002579689,0.0573399998247623,1.0150399208068848,-76.28250122070312,1.4700000286102295,-53.47999954223633
12.642454076280053,0.0897919982671737,-0.065880000591278,1.0077199935913086,-68.87999725341797,-2.0824999809265137,-87.43000030517578
12.662553367339322,0.1298079937696457,-0.0939399972558021,0.9772199988365172,-23.22249984741211,-2.870000123977661,-89.12750244140625
12.682652658398592,0.1307840049266815,-0.0375759974122047,0.9969840049743652,2.3975000381469727,-3.0625,-47.82749938964844
12.702751949457861,0.0844239965081214,-0.1134599968791008,0.9703879952430724,32.88249969482422,-4.199999809265137,4.304999828338623
12.72285124051713,0.1068719998002052,-0.0317199975252151,1.0472480058670044,102.05999755859376,-3.237499952316284,26.040000915527344
12.7429505315764,0.0629519969224929,0.1610399931669235,1.0230920314788818,119.50749969482422,6.947500228881836,31.53499984741211
12.763049822635669,0.0749079957604408,0.2527839839458465,1.0128439664840698,75.89749908447266,1.4700000286102295,26.72249984741211
12.783149113694938,0.100283995270729,0.1930039972066879,0.9928359985351562,31.44750022888184,2.502500057220459,12.092499732971191
12.803248404754207,0.0775920003652572,0.1451800018548965,1.001863956451416,1.399999976158142,3.0975000858306885,-0.2275000065565109
12.823347695813476,0.142984002828598,-0.1539639979600906,1.034559965133667,7.577499866485596,-0.0175000000745058,0.9100000262260436
12.843446986872745,-0.0173240005970001,-0.0431879982352256,1.1514359712600708,162.66250610351562,31.5,62.650001525878906
12.863546277932015,0.0073199998587369,0.2854799926280975,0.952575981616974,304.4825134277344,-4.21750020980835,49.647499084472656
12.883645568991284,0.216183990240097,0.4062599837779999,0.879863977432251,299.1100158691406,-55.6150016784668,-9.047499656677246
12.903744860050553,0.0668559968471527,0.6261039972305298,0.5863319635391235,182.71749877929688,-25.725000381469727,-27.26499938964844
12.923844151109822,0.181779995560646,0.7532280087471008,0.9555040001869202,27.42250061035156,-30.55500030517578,-11.532500267028809
12.943943442169092,0.0678320005536079,0.5048359632492065,0.7693319916725159,-71.90750122070312,20.825000762939453,12.197500228881836
12.96404273322836,0.0570959970355033,0.2208199948072433,0.9882000088691713,-123.34000396728516,17.517499923706055,29.96000099182129
12.98414202428763,0.1620160043239593,0.2635200023651123,1.1470439434051514,-79.20500183105469,16.887500762939453,31.832500457763672
13.0042413153469,0.2010560035705566,0.3723439872264862,1.118251919746399,-35.630001068115234,65.34500122070312,-3.7274999618530273
13.024340606406168,0.1500599980354309,0.3542879819869995,1.2341519594192505,-20.3700008392334,117.47750091552734,-31.9375
13.044439897465438,0.0497759990394115,0.3030479848384857,1.2724599838256836,-9.817500114440918,150.7100067138672,-36.3650016784668
13.064539188524707,0.0170799996703863,0.2989000082015991,1.1629040241241455,16.292499542236328,169.43499755859375,-40.38999938964844
13.084638479583976,-0.0971119999885559,0.2274079918861389,1.2287839651107788,36.71500015258789,211.8025054931641,-47.7400016784668
13.104737770643245,-0.2252119928598404,0.1827559918165207,1.2043839693069458,71.52249908447266,260.7674865722656,-52.272499084472656
13.124837061702515,-0.4548159837722778,0.2286279946565628,1.0457839965820312,138.09249877929688,317.94000244140625,-74.9000015258789
13.144936352761784,-0.6500160098075867,0.1951999962329864,0.8247199654579163,223.0200042724609,337.364990234375,-106.6624984741211
13.165035643821053,-0.8993839621543884,0.1485960036516189,0.5873079895973206,309.5924987792969,351.6625061035156,-128.8175048828125
13.185134934880322,-1.1336239576339722,0.2125239968299865,0.3572160005569458,370.0549926757813,334.4075012207031,-133.31500244140625
13.205234225939591,-1.352247953414917,0.3972319960594177,0.2030079960823059,396.9874877929688,298.7950134277344,-141.2425079345703
13.22533351699886,-1.424227952957153,0.517524003982544,-0.0558759979903698,380.7825012207031,269.3424987792969,-143.16749572753906
13.24543280805813,-1.2168279886245728,0.305976003408432,-0.5341159701347351,445.9175109863281,282.2749938964844,-168.55999755859375
13.265532099117399,-1.097999930381775,0.4567679762840271,-0.8600999712944031,539.1925048828125,234.0449981689453,-144.7425079345703
13.285631390176668,-1.410807967185974,0.8735199570655823,-0.358924001455307,546.10498046875,0.7699999809265137,-105.7874984741211
13.305730681235937,-1.851715922355652,0.9791719913482666,0.0912560001015663,429.7300109863281,-239.43499755859372,-140.12249755859375
13.325829972295207,-1.552083969116211,0.5995079874992371,0.4467639923095703,153.52749633789062,-399.12249755859375,-191.13499450683597
13.345929263354476,-0.9115839600563048,0.2142319977283477,0.6714879870414734,-75.02249908447266,-354.1650085449219,-178.7449951171875
13.366028554413745,-0.7678679823875427,0.2396079897880554,0.4374919831752777,-140.2624969482422,-173.38999938964844,-146.17750549316406
13.386127845473014,-0.7129679918289185,0.2674239873886108,0.2142319977283477,-117.14500427246094,-47.25,-148.61000061035156
13.406227136532284,-0.7915359735488892,0.1542080044746399,0.0802759975194931,-8.662500381469727,5.389999866485596,-180.1800079345703
13.426326427591553,-0.9513559937477112,-0.0351359993219375,0.0919879972934722,177.27499389648438,14.927499771118164,-193.8300018310547
13.446425718650822,-1.1655880212783811,0.0670999959111213,0.2320439964532852,338.5899963378906,20.299999237060547,-154.6999969482422
13.466525009710091,-1.394703984260559,0.3264719843864441,0.2618120014667511,297.9024963378906,35.9275016784668,-89.30249786376953
13.48662430076936,-1.4688799381256104,0.5270400047302246,0.1700679957866668,102.58499908447266,45.13249969482422,-38.622501373291016
13.50672359182863,-1.3578599691390991,0.4548159837722778,-0.1293199956417083,-127.26000213623048,7.804999828338623,-10.220000267028809
13.526822882887899,-1.1841319799423218,0.2371679991483688,-0.2535159885883331,-256.5849914550781,-86.9574966430664,8.78499984741211
13.546922173947168,-1.0496879816055298,0.038307998329401,-0.1268799901008606,-236.4949951171875,-147.3675079345703,23.69499969482422
13.567021465006437,-0.8061760067939758,-0.0578279979526996,-0.0041479999199509,-6.982500076293945,-57.400001525878906,45.692501068115234
13.587120756065707,-0.7937319874763489,0.0897919982671737,0.0314759984612464,129.57000732421875,8.154999732971191,40.477500915527344
13.607220047124976,-0.891819953918457,0.2459519952535629,0.1459119915962219,207.1824951171875,67.39250183105469,30.15250015258789
13.627319338184245,-1.120203971862793,0.2369239926338195,0.2242359966039657,205.69500732421875,95.2874984741211,31.43000030517578
13.647418629243514,-1.2465959787368774,0.2657159864902496,0.2845039963722229,146.91250610351562,78.2249984741211,33.65250015258789
13.667517920302783,-1.1489959955215454,0.1622599959373474,0.1844639927148819,50.88999938964844,36.34749984741211,41.125
13.687617211362053,-0.9747799634933472,0.1754359900951385,0.1461559981107711,-26.162500381469727,-21.857500076293945,52.255001068115234
13.707716502421322,-0.790071964263916,0.1954440027475357,0.2034959942102432,-85.38249969482422,-56.157501220703125,50.68000030517578
13.727815793480591,-0.6824679970741272,-0.0053679998964071,0.10589599609375,-98.36750030517578,-35.525001525878906,42.78749847412109
13.74791508453986,-0.696619987487793,-0.0356239974498748,0.1222440004348754,-11.147500038146973,21.06999969482422,38.60499954223633
13.76801437559913,-0.827892005443573,-0.0070759998634457,0.0595359988510608,103.44249725341795,100.23999786376952,18.95249938964844
13.788113666658399,-0.9140239953994752,0.06734399497509,0.0143959997221827,197.6800079345703,144.3050079345703,-2.887500047683716
13.808212957717668,-0.9852719902992249,0.1464000046253204,-0.0141519997268915,202.9824981689453,133.07000732421875,-11.182499885559082
13.828312248776937,-1.1009279489517212,0.2086199969053268,0.0041479999199509,154.6824951171875,92.3125,-10.6225004196167
13.848411539836206,-1.1433839797973633,0.2139879912137985,0.0312319993972778,88.88249969482422,67.56749725341797,-15.837499618530272
13.868510830895476,-1.0616439580917358,0.1686040014028549,-0.020983999595046,21.350000381469727,49.4375,-20.842500686645508
13.888610121954745,-0.9281759858131408,0.1163880005478859,-0.0375759974122047,-24.01000022888184,12.635000228881836,-21.122499465942383
13.908709413014014,-0.8291119933128357,0.0551439970731735,0.0034159999340772,-36.29500198364258,-16.729999542236328,-20.912500381469727
13.928808704073283,-0.8359439969062805,0.0246439985930919,0.0817399993538856,-14.630000114440918,-8.645000457763672,-21.315000534057617
13.948907995132553,-0.879863977432251,0.0439199991524219,0.1593319922685623,49.70000076293945,44.397499084472656,-35.97999954223633
13.969007286191822,-0.9469639658927916,0.0646599978208541,0.0890600010752677,119.85749816894533,101.01000213623048,-53.84749984741211
13.989106577251091,-0.9591639637947084,0.1320039927959442,0.0261080004274845,149.8524932861328,83.00250244140625,-58.01250076293945
14.00920586831036,-0.8793759942054749,0.1290760040283203,0.0131759997457265,122.88500213623048,5.460000038146973,-55.317501068115234
14.02930515936963,-0.8047119975090027,0.1498159915208816,0.0983319953083992,69.8949966430664,-61.58250045776367,-51.97499847412109
14.049404450428899,-0.7246800065040588,0.075883999466896,0.1878799945116043,9.3100004196167,-66.22000122070312,-43.88999938964844
14.069503741488168,-0.7212640047073364,0.0322079993784427,0.0680759996175766,-0.7175000309944153,-15.27750015258789,-41.89500045776367
14.089603032547437,-0.6766119599342346,0.018300000578165,-0.0402599982917308,33.127498626708984,0.6650000214576721,-49.77000045776367
14.109702323606706,-0.6387919783592224,-0.052947998046875,-0.0163480006158351,85.8375015258789,-22.1200008392334,-55.63249969482422
14.129801614665976,-0.6568480134010315,0.0114679997786879,-0.018300000578165,132.7550048828125,-38.307498931884766,-46.935001373291016
14.149900905725245,-0.6275680065155029,0.0856439992785453,0.028303999453783,134.9600067138672,-52.150001525878906,-39.04249954223633
14.170000196784514,-0.6429399847984314,0.0678320005536079,0.0595359988510608,32.98749923706055,-60.8125,-9.922499656677246
14.190099487843783,-0.6853960156440735,-0.0129319997504353,0.0263519994914531,-3.3600001335144043,-48.650001525878906,3.0799999237060547
14.210198778903052,-0.6863719820976257,-0.0295239984989166,0.0019519999623298,14.595000267028809,-46.91749954223633,14.332500457763672
14.230298069962322,-0.695643961429596,0.0197639986872673,0.009515999816358,25.217500686645508,-62.40499877929688,24.97249984741211
14.25039736102159,-0.74127197265625,-0.0017079999670386,0.0124439997598528,25.58500099182129,-79.46749877929688,28.6825008392334
14.27049665208086,-0.8093479871749878,-0.0646599978208541,0.0871080011129379,54.3025016784668,-80.23750305175781,32.619998931884766
14.29059594314013,-0.8688839673995972,-0.0151279997080564,0.206179991364479,91.85749816894533,-43.68000030517578,51.50249862670898
14.310695234199398,-0.90938800573349,0.066611997783184,0.1600639969110489,54.31999969482422,-2.555000066757202,80.23750305175781
14.330794525258668,-1.346879959106445,0.0919879972934722,-0.5153279900550842,74.2874984741211,-24.674999237060547,77.29750061035156
14.350893816317937,-1.2229279279708862,0.062219999730587,-0.2174039930105209,171.8675079345703,-211.2250061035156,49.682498931884766
14.370993107377206,-0.647819995880127,0.0226919986307621,0.2642520070075989,96.89749908447266,-232.43499755859372,70.69999694824219
14.391092398436475,-0.5280159711837769,-0.0905239954590797,0.387472003698349,-85.36499786376953,-25.44499969482422,82.19750213623047
14.411191689495745,-0.6939359903335571,-0.1349319964647293,0.1334680020809173,39.21749877929688,213.6750030517578,23.20499992370605
14.431290980555014,-1.085312008857727,-0.4399319887161255,0.0119559997692704,207.1475067138672,232.5225067138672,40.14500045776367
14.451390271614283,-0.994055986404419,-0.1586000025272369,-0.0975999981164932,380.7650146484375,137.8300018310547,60.375
14.471489562673552,-0.9354959726333618,0.1790959984064102,0.4184599816799164,456.2774963378906,79.30999755859375,22.01499938964844
14.491588853732821,-1.0279719829559326,0.2788919806480407,0.1991039961576461,358.5574951171875,24.482500076293945,-36.119998931884766
14.51168814479209,-0.8298439979553223,0.5575399994850159,0.5389959812164307,168.47250366210938,-108.11499786376952,-79.94000244140625
14.53178743585136,-0.957211971282959,0.4889760017395019,0.2793799936771393,-63.54249954223633,-125.96500396728516,-85.27750396728516
14.55188672691063,-1.1741279363632202,0.0248879995197057,0.2039839923381805,-144.07749938964844,-39.147499084472656,-77.3324966430664
14.571986017969898,-1.2187799215316772,0.0600240007042884,0.1176079958677291,-60.567501068115234,28.104999542236328,-63.50749969482422
14.592085309029168,-1.2370799779891968,-0.1398119926452636,-0.4470079839229584,39.54999923706055,-36.15499877929688,-46.900001525878906
14.612184600088437,-1.0616439580917358,0.0695400014519691,0.0932080000638961,175.4550018310547,-182.97999572753903,-23.57250022888184
14.632283891147706,-0.9027999639511108,0.0387960001826286,0.3064639866352081,199.57000732421875,-195.87750244140625,6.230000019073486
14.652383182206975,-0.949404001235962,0.1000399962067604,0.1930039972066879,227.4125061035156,-134.3125,35.10499954223633
14.672482473266244,-1.0289479494094849,0.2596159875392914,0.0707599967718124,233.34500122070312,-123.6374969482422,50.994998931884766
14.692581764325514,-1.0133320093154907,0.2676680088043213,0.1939799934625625,176.5399932861328,-163.5550079345703,62.10750198364258
14.712681055384783,-0.9445239901542664,0.2610799968242645,0.480679988861084,83.8949966430664,-178.5175018310547,45.5525016784668
14.732780346444052,-0.9396439790725708,0.1639679968357086,0.4221200048923492,5.442500114440918,-156.06500244140625,7.559999942779541
14.752879637503321,-0.8637599945068359,0.1805599927902221,0.3245199918746948,-36.18999862670898,-184.32749938964844,-19.75749969482422
14.77297892856259,-0.7654280066490173,0.2047159969806671,0.4767760038375854,-90.87750244140624,-146.63250732421875,-50.3125
14.79307821962186,-0.6605079770088196,0.1359079927206039,0.411871999502182,-39.98749923706055,-75.28500366210938,-20.982500076293945
14.813177510681129,-0.6112200021743774,0.1546960026025772,0.4701879918575287,7.0,-11.619999885559082,14.332500457763672
14.833276801740398,-0.6712439656257629,0.0690519958734512,0.4999559819698334,-32.88249969482422,59.67499923706055,28.89249992370605
14.853376092799667,-0.7820199728012085,0.1820240020751953,0.2454639971256256,-85.62750244140625,116.97000122070312,31.07999992370605
14.873475383858937,-0.6853960156440735,0.4614039957523346,-0.0161039996892213,-274.1725158691406,64.08499908447266,13.422499656677246
14.893574674918206,-0.6324479579925537,0.3611199855804443,0.1876360028982162,-520.9400024414062,38.20249938964844,-5.897500038146973
14.913673965977475,-0.6963759660720825,-0.0973559990525245,-0.0422119982540607,-556.4824829101562,135.57249450683594,-10.90250015258789
14.933773257036744,-0.9247599840164183,-0.3025600016117096,-0.0412359982728958,-474.8624877929688,214.69000244140625,24.167499542236328
14.953872548096014,-1.0794559717178345,-0.3186639845371246,-0.2037400007247924,-282.2049865722656,249.5850067138672,57.61000061035156
14.973971839155283,-1.1187399625778198,-0.3259840011596679,-0.2435119897127151,-3.4649999141693115,226.78250122070312,48.720001220703125
14.994071130214552,-1.1148359775543213,-0.2249680012464523,-0.2195999920368194,191.6775054931641,167.22999572753906,48.26499938964844
15.014170421273821,-1.097756028175354,-0.0578279979526996,-0.0788119956851005,281.67999267578125,123.77750396728516,39.060001373291016
15.03426971233309,-1.1048319339752195,0.0351359993219375,0.0231800004839897,276.4649963378906,137.5500030517578,15.27750015258789
15.05436900339236,-1.13264799118042,0.0451399981975555,0.0973559990525245,198.15249633789065,175.73500061035156,1.837499976158142
15.074468294451629,-1.139967918395996,-0.052216000854969,0.1071159988641738,104.75499725341795,219.76499938964844,-2.345000028610229
15.094567585510898,-1.2129240036010742,-0.1371279954910278,0.0241560004651546,68.1624984741211,251.5800018310547,5.039999961853027
15.114666876570167,-1.1987719535827637,-0.1449359953403473,0.0004879999905824,84.75250244140625,241.72750854492188,17.149999618530273
15.134766167629436,-1.1658319234848022,-0.152988001704216,-0.0402599982917308,129.41250610351562,210.12249755859372,21.227500915527344
15.154865458688706,-1.1158119440078735,-0.1163880005478859,-0.0168359987437725,162.1199951171875,172.44500732421875,21.84000015258789
15.174964749747975,-1.107759952545166,-0.0275719985365867,-0.0087839998304843,153.8249969482422,151.09500122070312,19.40749931335449
15.195064040807244,-1.0748199224472046,-0.0446520000696182,0.0039039999246597,109.00749969482422,151.1475067138672,7.157500267028809
15.215163331866513,-1.010892033576965,-0.0265959985554218,-0.0341599993407726,46.88249969482422,159.58250427246094,7.577499866485596
15.235262622925783,-1.0008879899978638,-0.0761279985308647,-0.1198039948940277,7.664999961853027,146.96499633789062,4.514999866485596
15.255361913985052,-1.117275953292847,-0.1420079916715622,-0.2369239926338195,2.345000028610229,105.41999816894533,7.4375
15.275461205044321,-1.1680279970169067,-0.1603080034255981,-0.1744599938392639,40.3025016784668,51.50249862670898,9.135000228881836
15.29556049610359,-1.223171949386597,-0.1525000035762787,-0.196175992488861,77.94499969482422,27.002500534057617,17.815000534057617
15.31565978716286,-1.02211594581604,-0.0936959981918335,-0.2154520004987716,109.0250015258789,-17.86750030517578,25.987499237060547
15.335759078222129,-0.9189040064811708,-0.0041479999199509,-0.1383479982614517,127.61000061035156,-72.2925033569336,17.517499923706055
15.355858369281398,-1.1282559633255005,0.0624639987945556,-0.0753960013389587,64.13749694824219,-112.9800033569336,26.4424991607666
15.375957660340667,-1.1136159896850586,-0.1158999949693679,-0.1903200000524521,-89.91500091552734,-113.17250061035156,32.567501068115234
15.396056951399936,-0.8942599892616272,-0.1920280009508133,-0.0905239954590797,-69.00250244140625,-164.62249755859375,28.21000099182129
15.416156242459206,-0.9969840049743652,-0.1544519960880279,-0.0514839999377727,-21.612499237060547,-186.65499877929688,27.177499771118164
15.436255533518475,-1.0997079610824585,-0.1405439972877502,0.006343999877572,29.75,-181.6150054931641,25.252500534057617
15.456354824577744,-1.1475319862365725,-0.0807639956474304,0.0700279995799064,55.125,-169.41749572753906,34.790000915527344
15.476454115637013,-1.1914520263671875,-0.042943999171257,0.0641719996929168,34.96500015258789,-157.2899932861328,47.459999084472656
15.496553406696282,-1.2236599922180176,-0.0080519998446106,0.0800319984555244,-19.84499931335449,-166.82749938964844,58.01250076293945
15.516652697755552,-1.107272028923035,-0.0214719995856285,0.0580720007419586,-80.20249938964844,-163.8699951171875,52.56999969482422
15.536751988814821,-1.0923880338668823,-0.061243999749422,-0.0973559990525245,-109.00749969482422,-163.90499877929688,34.317501068115234
15.55685127987409,-0.9730719923973083,-0.1222440004348754,-0.0912560001015663,-81.42749786376953,-196.47250366210935,16.100000381469727
15.57695057093336,-1.0008879899978638,-0.1154119968414306,-0.1032119989395141,-24.97249984741211,-212.1175079345703,6.107500076293945
15.597049861992629,-0.9808799624443054,-0.0495319999754428,0.0285479985177516,6.474999904632568,-209.07249450683597,5.144999980926514
15.617149153051898,-1.1194720268249512,0.0112239997833967,0.105163998901844,-16.22249984741211,-158.8300018310547,0.9800000190734864
15.637248444111167,-1.1282559633255005,-0.0065879998728632,0.100283995270729,-98.45500183105467,-112.9800033569336,-1.1375000476837158
15.657347735170436,-1.1099560260772705,-0.0668559968471527,0.0163480006158351,-160.7375030517578,-91.27999877929688,-11.672499656677246
15.677447026229705,-1.0169919729232788,-0.1644559949636459,-0.0224479995667934,-150.22000122070312,-95.6374969482422,-25.23500061035156
15.697546317288975,-0.9303719997406006,-0.185928001999855,-0.0002439999952912,-85.26000213623047,-109.58499908447266,-18.427499771118164
15.717645608348244,-0.7634760141372681,-0.1266359984874725,0.0922319963574409,-24.622499465942383,-111.52750396728516,6.650000095367432
15.737744899407513,-0.4094319939613342,0.1017479971051216,0.0844239965081214,1.4175000190734863,-70.50749969482422,16.309999465942383
15.757844190466782,-0.2784039974212646,-0.0185439996421337,0.2256999909877777,-30.34499931335449,-39.70750045776367,26.0049991607666
15.777943481526052,-0.3511160016059875,0.1166319996118545,0.2274079918861389,-97.42250061035156,31.07999992370605,27.63249969482422
15.79804277258532,-0.3498959839344024,-0.0544119998812675,0.1285879909992218,-130.05999755859375,94.98999786376952,15.697500228881836
15.81814206364459,-0.4025999903678894,-0.042943999171257,0.1590880006551742,-48.58000183105469,150.2725067138672,9.397500038146973
15.83824135470386,-0.5214279890060425,-0.1559159904718399,-0.0078079998493194,69.30000305175781,189.1750030517578,1.75
15.858340645763128,-0.7193120121955872,0.010491999797523,-0.0480679981410503,217.0,162.2949981689453,12.162500381469728
15.878439936822398,-0.8615639805793762,0.0871080011129379,0.3350119888782501,221.47999572753903,121.13500213623048,3.7799999713897705
15.898539227881667,-1.2119479179382324,0.0368440002202987,0.5655919909477234,164.2550048828125,177.6074981689453,-10.342499732971191
15.918638518940936,-1.4286199808120728,0.1112639978528022,0.4345639944076538,72.5199966430664,271.2850036621094,10.447500228881836
15.938737810000205,-1.331995964050293,0.2832840085029602,0.1644559949636459,-57.04999923706055,309.9775085449219,28.420000076293945
15.958837101059475,-1.2092639207839966,0.2181359976530075,-0.2147199958562851,-159.38999938964844,283.0625,22.08500099182129
15.978936392118744,-1.2634320259094238,0.0173240005970001,-0.3669759929180145,-133.4199981689453,131.6699981689453,29.364999771118164
15.999035683178013,-1.3451719284057615,-0.0161039996892213,-0.3198840022087097,-108.63999938964844,108.20249938964844,43.88999938964844
16.019134974237282,-1.405683994293213,0.0346480011940002,-0.3730759918689728,-98.22750091552734,88.4625015258789,63.61249923706055
16.03923426529655,-1.2175599336624146,0.071492001414299,-0.2125239968299865,-117.23249816894533,48.59749984741211,61.880001068115234
16.059333556355817,-0.8879159688949585,0.0727119967341423,-0.0500199981033802,-147.55999755859375,56.03499984741211,40.59999847412109
16.079432847415084,-0.8376519680023193,-0.1566479951143264,-0.1317600011825561,-164.9199981689453,76.63249969482422,10.710000038146973
16.099532138474352,-0.96453195810318,-0.2559559941291809,-0.3367199897766113,-63.71749877929688,31.780000686645508,-16.362499237060547
16.11963142953362,-0.5338720083236694,-0.3184199929237366,0.0019519999623298,176.17250061035156,-65.88749694824219,-29.854999542236328
16.139730720592887,-0.2481479942798614,-0.0590479969978332,-0.095891997218132,461.3525085449219,-57.64500045776367,-35.595001220703125
16.159830011652154,-0.2305800020694732,0.1371279954910278,-0.1307840049266815,571.375,-41.09000015258789,-42.630001068115234
16.17992930271142,-0.0973559990525245,0.3999159932136535,0.1786080002784729,564.7949829101562,-80.69249725341797,-56.13999938964844
16.20002859377069,-0.0039039999246597,-0.0878399983048439,0.1698240041732788,464.2575073242188,-58.29249954223633,-32.54999923706055
16.220127884829957,-0.1132159978151321,-0.042943999171257,-0.2359479963779449,452.0775146484375,-63.10499954223633,2.1524999141693115
16.240227175889224,-0.1581119894981384,0.0717360004782676,-0.2854799926280975,460.9500122070313,-171.5175018310547,34.58000183105469
16.26032646694849,-0.1503039896488189,0.1905639916658401,-0.0736880004405975,384.614990234375,-282.45001220703125,56.630001068115234
16.28042575800776,-0.3886919915676117,0.2786479890346527,0.1017479971051216,191.76499938964844,-337.8374938964844,35.595001220703125
16.300525049067026,-0.8630279898643494,0.1312720030546188,1.2102400064468384,-31.71000099182129,-271.4075012207031,8.399999618530273
16.320624340126294,-0.9071919918060304,-0.5743759870529175,2.184043884277344,-83.33499908447266,176.71499633789062,34.05500030517578
16.34072363118556,-2.586400032043457,-0.5275279879570007,2.1479320526123047,236.40750122070312,554.697509765625,96.80999755859376
16.36082292224483,-2.8826160430908203,-0.2249680012464523,-0.2793799936771393,380.5199890136719,572.58251953125,115.98999786376952
16.380922213304096,-1.794376015663147,0.0392839983105659,-3.3786678314208984,124.47750091552734,259.2099914550781,122.39500427246094
16.401021504363364,-1.6982399225234983,-0.2139879912137985,-2.6569159030914307,-30.11750030517578,-125.68499755859376,197.25999450683597
16.42112079542263,-0.5924319624900818,-0.1456679999828338,-0.8454599976539612,115.22000122070312,-78.80249786376953,218.2250061035156
16.4412200864819,-0.8393599987030029,-0.4269999861717224,-0.5099599957466125,227.00999450683597,41.96500015258789,244.5800018310547
16.461319377541166,-0.3172000050544739,0.2466839998960495,-0.0407480001449584,293.4049987792969,-77.68250274658203,257.95001220703125
16.481418668600433,-0.3315959870815277,-0.1022359952330589,0.0556319989264011,201.4425048828125,-202.8600006103516,244.59750366210935
16.5015179596597,-0.6714879870414734,-0.2547360062599182,-0.0619760006666183,203.3675079345703,-209.22999572753903,215.25
16.52161725071897,-1.113860011100769,-0.2435119897127151,-0.3962559998035431,231.83999633789065,-231.38499450683597,167.1074981689453
16.541716541778236,-1.4847400188446045,0.4096759855747223,-0.4411519765853882,210.03500366210935,-295.8374938964844,78.87249755859375
16.561815832837503,-1.490351915359497,0.2810879945755005,-0.748591959476471,15.994999885559082,-335.614990234375,41.352500915527344
16.58191512389677,-0.7737239599227905,0.2147199958562851,-1.2917360067367554,-26.477500915527344,31.325000762939453,-280.5950012207031
16.602014414956038,-1.3737199306488037,-0.1888559907674789,-0.0663679987192154,-115.4124984741211,-284.44500732421875,-287.1925048828125
16.622113706015305,-1.5608680248260498,-0.473360002040863,0.5770599842071533,-50.470001220703125,-561.592529296875,-212.8175048828125
16.642212997074573,-1.4522879123687744,0.1815359890460968,1.0003999471664429,250.1625061035156,-545.5974731445312,-100.87000274658205
16.66231228813384,-0.4909279942512512,-0.2749879956245422,0.8769359588623047,419.8074951171875,-363.3175048828125,29.364999771118164
16.682411579193108,-0.3355000019073486,0.627079963684082,0.6771000027656555,164.36000061035156,-140.31500244140625,75.28500366210938
16.702510870252375,-0.1995919942855835,-0.4133359789848327,0.3855199813842773,-217.59500122070312,20.229999542236328,28.770000457763672
16.722610161311643,-0.4423719942569732,-0.1407880038022995,0.3945479989051819,-88.95249938964844,155.47000122070312,89.04000091552734
16.74270945237091,-0.5436319708824158,0.0509959980845451,0.4189479947090149,-104.24749755859376,247.2050018310547,126.64749908447266
16.762808743430178,-0.7110159993171692,0.2422920018434524,0.4906840026378631,-254.66000366210935,289.1700134277344,135.3800048828125
16.782908034489445,-0.972827970981598,0.4240719974040985,0.2852360010147095,-489.4225158691406,296.2225036621094,125.17749786376952
16.803007325548712,-1.3088159561157229,0.2056919932365417,-0.1598199903964996,-565.4075317382812,249.49749755859372,92.27750396728516
16.82310661660798,-1.3378520011901855,-0.3647799789905548,-0.342087984085083,-399.1925048828125,176.01499938964844,65.37999725341797
16.843205907667247,-1.0857999324798584,-0.3630719780921936,-0.2979239821434021,-90.00250244140625,144.91749572753906,26.232500076293945
16.863305198726515,-0.9750239849090576,-0.224723994731903,-0.2781600058078766,97.37000274658205,153.7550048828125,-15.732500076293944
16.883404489785782,-0.9972279667854308,-0.052216000854969,-0.3069519996643066,136.2550048828125,124.38999938964844,-16.712499618530273
16.90350378084505,-1.001376032829285,-0.0251320004463195,-0.3408679962158203,95.53250122070312,54.040000915527344,9.712499618530272
16.923603071904317,-0.8737639784812927,-0.1725080013275146,-0.3189080059528351,65.44999694824219,-38.95500183105469,32.3224983215332
16.943702362963585,-0.7620120048522949,-0.2052039951086044,-0.1371279954910278,116.77750396728516,-93.23999786376952,20.59749984741211
16.963801654022852,-0.9342759847640992,-0.2357039898633957,-0.1766559928655624,191.74749755859372,-79.48500061035156,10.114999771118164
16.98390094508212,-1.1270359754562378,-0.142984002828598,-0.284991979598999,287.4725036621094,-34.02000045776367,5.442500114440918
17.004000236141387,-1.1941360235214231,0.0065879998728632,-0.3286679983139038,369.8275146484375,5.425000190734863,10.53499984741211
17.024099527200654,-1.2009680271148682,0.1415199935436248,-0.138835996389389,415.0824890136719,-25.77750015258789,22.69750022888184
17.044198818259922,-1.0272400379180908,0.264983981847763,0.2005679905414581,394.1700134277344,-95.09500122070312,12.267499923706056
17.06429810931919,-1.030900001525879,0.1546960026025772,0.4116279780864715,258.63250732421875,-124.3550033569336,-18.024999618530277
17.084397400378457,-1.1589999198913574,0.0222040005028247,0.4099199771881103,100.48500061035156,-109.00749969482422,-46.68999862670898
17.104496691437724,-1.0294359922409058,-0.0204959996044635,0.2527839839458465,-26.11000061035156,-84.73500061035156,-45.97249984741211
17.12459598249699,-0.9279319643974304,-0.0024399999529123,0.2547360062599182,-82.21500396728516,-70.92749786376953,-37.852500915527344
17.14469527355626,-0.8313080072402954,0.0197639986872673,0.2174039930105209,-118.6500015258789,-41.00249862670898,-25.1299991607666
17.164794564615526,-0.6631919741630554,-0.0151279997080564,0.099551998078823,-142.4324951171875,-7.612500190734863,-15.032500267028809
17.184893855674794,-0.7934879660606384,-0.0224479995667934,0.0678320005536079,-97.2125015258789,59.37749862670898,-1.4874999523162842
17.20499314673406,-1.063107967376709,-0.0392839983105659,0.0807639956474304,-73.77999877929688,102.86499786376952,-7.402500152587891
17.22509243779333,-1.398851990699768,-0.0793000012636184,-0.0390399992465972,-66.08000183105469,141.78500366210938,-2.555000066757202
17.245191728852596,-1.4508240222930908,-0.0897919982671737,0.0517279990017414,-67.4625015258789,154.6824951171875,10.517499923706056
17.265291019911864,-1.213655948638916,-0.2632759809494018,-0.0190319996327161,-51.45000076293945,175.55999755859375,8.3125
17.28539031097113,-0.993079960346222,-0.3979640007019043,-0.1149239987134933,84.38500213623047,178.09750366210938,-16.100000381469727
17.3054896020304,-1.0704280138015747,-0.3518480062484741,-0.224480003118515,311.552490234375,140.59500122070312,-33.564998626708984
17.325588893089666,-1.0279719829559326,-0.0109799997881054,-0.1915400028228759,486.7099914550781,57.959999084472656,-36.942501068115234
17.345688184148933,-0.74127197265625,0.1280999928712844,-0.0395279973745346,442.802490234375,-34.0724983215332,-36.13750076293945
17.3657874752082,-0.4814119935035705,0.1503039896488189,0.0678320005536079,319.0775146484375,-69.07250213623047,-37.1349983215332
17.38588676626747,-0.3572160005569458,0.0534359999001026,0.0756400004029274,205.29249572753903,-52.97249984741211,-34.14250183105469
17.405986057326736,-0.4621360003948211,0.0353799983859062,-0.0685639977455139,150.20249938964844,-33.82749938964844,-28.979999542236328
17.426085348386003,-0.7141879796981812,-0.0253759995102882,-0.0763719975948333,133.0175018310547,-42.595001220703125,-32.00749969482422
17.44618463944527,-1.29368793964386,0.0080519998446106,-0.1503039896488189,153.4925079345703,-23.852500915527344,-31.9375
17.466283930504538,-1.6909199953079224,0.0534359999001026,-0.2559559941291809,139.9300079345703,-6.300000190734863,1.1375000476837158
17.486383221563806,-1.534027934074402,0.0919879972934722,-0.0165919996798038,79.5374984741211,-14.454999923706056,45.86750030517578
17.506482512623073,-1.236348032951355,-0.0458719991147518,0.1995919942855835,10.675000190734863,11.30500030517578,59.44750213623047
17.52658180368234,-1.1848639249801636,0.076615996658802,0.3184199929237366,-30.100000381469727,24.727500915527344,46.584999084472656
17.546681094741608,-1.3268719911575315,-0.0646599978208541,0.1454239934682846,-134.78500366210938,5.25,31.184999465942383
17.566780385800875,-1.297104001045227,-0.0351359993219375,-0.1681160032749176,-183.0500030517578,-92.36499786376952,19.915000915527344
17.586879676860143,-0.925491988658905,-0.244731992483139,0.130295991897583,-162.61000061035156,-198.25750732421875,14.50749969482422
17.60697896791941,-0.5389959812164307,-0.1327359974384308,0.4567679762840271,-117.40750122070312,-148.80250549316406,30.905000686645508
17.627078258978678,-0.5997520089149475,0.0222040005028247,0.4370039999485016,-131.74000549316406,33.022499084472656,25.112499237060547
17.647177550037945,-0.9210999608039856,-0.0885719954967498,0.3428199887275696,-167.1425018310547,188.40499877929688,13.649999618530272
17.667276841097213,-1.490351915359497,0.0434319972991943,0.2566879987716675,-170.58999633789062,268.1000061035156,16.344999313354492
17.68737613215648,-1.60698401927948,0.0039039999246597,-0.1503039896488189,-162.9600067138672,239.27749633789065,2.887500047683716
17.707475423215747,-1.3551759719848633,-0.0358680002391338,-0.5204519629478455,-145.5124969482422,64.4000015258789,4.777500152587891
17.727574714275015,-0.9884439706802368,-0.0512399971485137,-0.3540439903736114,-84.9800033569336,-150.41250610351562,-10.832500457763672
17.747674005334282,-1.0269960165023804,-0.0085399998351931,-0.1903200000524521,-74.375,-198.4149932861328,-12.61750030517578
17.76777329639355,-1.1541199684143066,-0.0641719996929168,-0.057583998888731,-104.6500015258789,-143.11500549316406,14.892499923706056
17.787872587452817,-0.8954799771308899,-0.0910120010375976,-0.0907679945230484,-117.75749969482422,47.040000915527344,33.07500076293945
17.807971878512085,-0.987223982810974,-0.0639280006289482,-0.0431879982352256,-108.97250366210938,123.25250244140624,10.202500343322754
17.828071169571352,-1.2190239429473877,-0.1468880027532577,0.0885719954967498,-154.12249755859375,141.5574951171875,16.83500099182129
17.84817046063062,-1.0992200374603271,-0.1400559991598129,0.1825120002031326,-196.38499450683597,85.26000213623047,22.627500534057617
17.868269751689887,-0.9169519543647766,-0.2032520025968551,0.0997959971427917,-180.0574951171875,31.90250015258789,2.0999999046325684
17.888369042749154,-0.9023119807243348,-0.0910120010375976,0.071492001414299,-124.65250396728516,-14.857500076293944,-28.542499542236328
17.908468333808422,-1.1106879711151123,-0.1134599968791008,0.0324519984424114,-94.3949966430664,-60.00749969482422,-41.29999923706055
17.92856762486769,-1.040903925895691,-0.1129719987511634,0.1537199914455413,-68.47750091552734,-114.37999725341795,-40.52999877929688
17.948666915926957,-0.9115839600563048,-0.0346480011940002,0.1856839954853058,-57.48749923706055,-130.51499938964844,-50.032501220703125
17.968766206986224,-0.8374080061912537,-0.0800319984555244,0.1198039948940277,-58.88750076293945,-97.00250244140624,-58.69499969482422
17.98886549804549,-0.8122760057449341,0.0102479998022317,0.1117519959807396,-44.1875,-27.755001068115234,-49.13999938964844
18.00896478910476,-0.9123159646987916,-0.0200079996138811,0.0663679987192154,-92.55750274658205,53.8650016784668,-16.747499465942383
18.029064080164027,-1.130695939064026,-0.0966240018606185,-0.1351760029792785,-106.01499938964844,106.29499816894533,6.090000152587891
18.049163371223294,-1.212435960769653,-0.0688079968094825,-0.1539639979600906,-58.380001068115234,93.16999816894533,-7.525000095367432
18.06926266228256,-1.2175599336624146,0.0207399986684322,-0.066611997783184,-34.66749954223633,66.36000061035156,-28.104999542236328
18.08936195334183,-1.02675199508667,-0.0727119967341423,0.0121999997645616,-72.06500244140625,46.54999923706055,-23.76499938964844
18.109461244401096,-0.9740479588508606,-0.1786080002784729,0.0405040010809898,-89.49500274658203,50.942501068115234,8.34749984741211
18.129560535460364,-0.9303719997406006,-0.1029679998755455,-0.06734399497509,-14.770000457763672,53.28749847412109,1.662500023841858
18.14965982651963,-0.8030039668083191,0.0036599999293684,-0.0451399981975555,38.692501068115234,3.884999990463257,-28.94499969482422
18.1697591175789,-0.7695760130882263,-0.0824719965457916,-0.0680759996175766,33.442501068115234,-60.497501373291016,-27.09000015258789
18.189858408638166,-0.688323974609375,-0.1515239924192428,0.0490439981222152,64.03250122070312,-99.19000244140624,11.970000267028809
18.209957699697433,-0.7341960072517395,-0.1315159946680069,0.1412760019302368,110.58250427246094,-58.53749847412109,33.75749969482422
18.2300569907567,-0.8164240121841431,-0.0427000001072883,0.0322079993784427,164.9375,2.257499933242798,15.260000228881836
