Time (seconds),acc_x,acc_y,acc_z,gyro_x,gyro_y,gyro_z
0.02023620852594715,0.0722239986062049,-0.7729920148849487,0.6409879922866821,0.3849999904632568,-0.262499988079071,-0.1400000005960464
0.0404724170518943,0.0744199976325035,-0.7720159888267517,0.6407439708709717,0.1749999970197677,-0.1225000023841857,-0.1400000005960464
0.060708625577841444,0.0724679976701736,-0.7759199738502502,0.6409879922866821,0.2450000047683715,0.2275000065565109,-0.4025000035762787
0.0809448341037886,0.0722239986062049,-0.7746999859809875,0.6422079801559448,0.4724999964237213,0.2800000011920929,-0.4724999964237213
0.10118104262973575,0.0719799995422363,-0.7725039720535278,0.6424520015716553,0.8224999904632568,0.1924999952316284,-0.4025000035762787
0.1214172511556829,0.0707599967718124,-0.770796000957489,0.6424520015716553,0.9449999928474426,0.0874999985098838,-0.4724999964237213
0.14165345968163004,0.0710039958357811,-0.7700639963150024,0.643671989440918,0.7175000309944153,0.1225000023841857,-0.4724999964237213
0.1618896682075772,0.0736880004405975,-0.7751879692077637,0.6429399847984314,0.2800000011920929,0.1749999970197677,-0.1749999970197677
0.18212587673352434,0.0719799995422363,-0.7800679802894592,0.6385480165481567,0.2800000011920929,-0.4550000131130218,0.1400000005960464
0.2023620852594715,0.066611997783184,-0.7803120017051697,0.6353759765625,0.4724999964237213,-0.9275000095367432,0.1749999970197677
0.22259829378541865,0.0670999959111213,-0.7786039710044861,0.6373279690742493,1.0674999952316284,-1.4524999856948853,0.262499988079071
0.2428345023113658,0.0710039958357811,-0.7751879692077637,0.6431840062141418,1.3650000095367432,-1.715000033378601,0.2975000143051147
0.2630707108373129,0.0734440013766288,-0.7756760120391846,0.6448919773101807,1.0674999952316284,-1.4524999856948853,0.1574999988079071
0.2833069193632601,0.0734440013766288,-0.7786039710044861,0.6439160108566284,0.9449999928474426,-1.0674999952316284,-0.1050000041723251
0.30354312788920723,0.0727119967341423,-0.7768959999084473,0.6422079801559448,1.190000057220459,-1.1024999618530271,-0.262499988079071
0.3237793364151544,0.0734440013766288,-0.7751879692077637,0.644648015499115,0.9975000023841858,-0.9449999928474426,-0.1225000023841857
0.34401554494110154,0.0729559957981109,-0.7759199738502502,0.6456239819526672,1.1549999713897705,-0.8400000333786011,0.0700000002980232
0.3642517534670487,0.0756400004029274,-0.7734799981117249,0.6422079801559448,1.627500057220459,-0.9275000095367432,0.0700000002980232
0.38448796199299584,0.0749079957604408,-0.7712839841842651,0.6378160119056702,1.784999966621399,-1.1200000047683716,0.1050000041723251
0.404724170518943,0.0761279985308647,-0.7693319916725159,0.640500009059906,1.4874999523162842,-1.0149999856948853,0.3149999976158142
0.42496037904489015,0.076615996658802,-0.7688440084457397,0.6441599726676941,1.1024999618530271,-0.8050000071525574,0.4375
0.4451965875708373,0.0761279985308647,-0.7683559656143188,0.6424520015716553,0.9449999928474426,-0.612500011920929,0.4900000095367431
0.46543279609678445,0.0756400004029274,-0.7681120038032532,0.6383039951324463,0.4900000095367431,-0.4900000095367431,0.3149999976158142
0.4856690046227316,0.075883999466896,-0.7685999870300293,0.6373279690742493,-0.1225000023841857,-0.3675000071525574,0.2100000083446502
0.5059052131486788,0.0768599957227706,-0.76664799451828,0.6409879922866821,-0.0874999985098838,-0.3849999904632568,0.332500010728836
0.5261414216746259,0.0805199965834617,-0.7673799991607666,0.643671989440918,0.0700000002980232,-0.4375,0.6650000214576721
0.546377630200573,0.0839359983801841,-0.7700639963150024,0.6448919773101807,-0.1574999988079071,-0.5950000286102295,0.8924999833106995
0.56661383872652,0.0829599946737289,-0.7710399627685547,0.6417199969291687,-0.332500010728836,-0.6825000047683716,0.8050000071525574
0.5868500472524671,0.0802759975194931,-0.7659159898757935,0.6400119662284851,-0.5425000190734863,-0.7175000309944153,0.6825000047683716
0.6070862557784142,0.0753960013389587,-0.7659159898757935,0.6419639587402344,-0.962499976158142,-0.7350000143051147,0.5425000190734863
0.6273224643043613,0.071492001414299,-0.7727479934692383,0.6466000080108643,-0.9800000190734864,-1.1024999618530271,0.1050000041723251
0.6475586728303084,0.0741759985685348,-0.774944007396698,0.6524559855461121,0.0874999985098838,-1.2074999809265137,-0.5249999761581421
0.6677948813562555,0.0719799995422363,-0.7773839831352234,0.6453799605369568,0.5950000286102295,-0.962499976158142,-0.5249999761581421
0.6880310898822026,0.0744199976325035,-0.7764079570770264,0.6453799605369568,1.662500023841858,-0.962499976158142,-0.7524999976158142
0.7082672984081497,0.0768599957227706,-0.7727479934692383,0.6495279669761658,2.1524999141693115,-1.1200000047683716,-0.8924999833106995
0.7285035069340968,0.0832040011882782,-0.7664039731025696,0.6495279669761658,1.5924999713897705,-0.7875000238418579,-0.6650000214576721
0.7487397154600439,0.0814960002899169,-0.7654280066490173,0.6439160108566284,0.8224999904632568,-0.2275000065565109,-0.6299999952316284
0.768975923985991,0.0763719975948333,-0.7673799991607666,0.6468439698219299,0.2275000065565109,-0.5425000190734863,-0.7175000309944153
0.7892121325119381,0.0746639966964721,-0.7673799991607666,0.6529439687728882,-0.8575000166893005,-1.1725000143051147,-0.3849999904632568
0.8094483410378852,0.0749079957604408,-0.774944007396698,0.6495279669761658,-2.502500057220459,-1.627500057220459,0.4025000035762787
0.8296845495638323,0.0668559968471527,-0.7807999849319458,0.6402559876441956,-1.995000004768372,-2.134999990463257,1.0325000286102295
0.8499207580897794,0.0605119988322258,-0.7746999859809875,0.6417199969291687,-0.0874999985098838,-3.009999990463257,1.0850000381469729
0.8701569666157265,0.065880000591278,-0.7722600102424622,0.6441599726676941,0.1924999952316284,-3.6575000286102295,1.1200000047683716
0.8903931751416736,0.076615996658802,-0.7705519795417786,0.6453799605369568,-0.6650000214576721,-3.920000076293945,1.4350000619888306
0.9106293836676207,0.0819839984178543,-0.7693319916725159,0.6392799615859985,-1.5575000047683716,-3.990000009536743,1.8725000619888303
0.9308655921935678,0.0773480013012886,-0.7703079581260681,0.6334239840507507,-2.2225000858306885,-4.130000114440918,2.2049999237060547
0.9511018007195149,0.0773480013012886,-0.7734799981117249,0.6336680054664612,-2.870000123977661,-4.53249979019165,2.5374999046325684
0.971338009245462,0.0814960002899169,-0.7766519784927368,0.6368399858474731,-3.184999942779541,-4.65500020980835,2.9049999713897705
0.9915742177714091,0.0832040011882782,-0.7751879692077637,0.6336680054664612,-3.1675000190734863,-4.777500152587891,3.0625
1.0118104262973562,0.0805199965834617,-0.7681120038032532,0.632203996181488,-2.625,-5.25,2.712500095367432
1.0320466348233033,0.0749079957604408,-0.7688440084457397,0.6317160129547119,-2.817500114440918,-5.862500190734863,2.2049999237060547
1.0522828433492504,0.0817399993538856,-0.7764079570770264,0.6375719904899597,-3.202500104904175,-6.579999923706055,2.0299999713897705
1.0725190518751975,0.095160000026226,-0.7837280035018921,0.6397680044174194,-3.4825000762939453,-6.352499961853027,2.380000114440918
1.0927552604011446,0.0946719944477081,-0.7764079570770264,0.6365959644317627,-3.3424999713897705,-5.827499866485596,3.009999990463257
1.1129914689270917,0.0871080011129379,-0.76664799451828,0.6319599747657776,-4.130000114440918,-5.617499828338623,3.2725000381469727
1.1332276774530388,0.0824719965457916,-0.791047990322113,0.6265919804573059,-5.775000095367432,-5.635000228881836,3.3600001335144043
1.1534638859789859,0.0824719965457916,-0.7893399596214294,0.6351320147514343,-4.269999980926514,-5.057499885559082,2.747499942779541
1.173700094504933,0.0846679955720901,-0.7876319885253906,0.6378160119056702,-3.307500123977661,-3.867500066757202,1.9424999952316284
1.19393630303088,0.0841799974441528,-0.7854359745979309,0.6383039951324463,-2.380000114440918,-3.255000114440918,1.1549999713897705
1.2141725115568271,0.0897919982671737,-0.7815319895744324,0.6358639597892761,-1.3825000524520874,-3.552500009536743,0.6650000214576721
1.2344087200827742,0.0988200008869171,-0.7832399606704712,0.6336680054664612,-0.962499976158142,-4.09499979019165,0.1924999952316284
1.2546449286087213,0.095160000026226,-0.7864120006561279,0.6231759786605835,-2.1700000762939453,-3.972500085830689,-0.6299999952316284
1.2748811371346684,0.0880839973688125,-0.779092013835907,0.6139039993286133,0.612500011920929,-3.289999961853028,-0.0175000000745058
1.2951173456606155,0.0873520001769065,-0.7988559603691101,0.6212239861488342,1.5924999713897705,-3.0975000858306885,0.1749999970197677
1.3153535541865626,0.0941839963197708,-0.790071964263916,0.6197599768638611,-0.6825000047683716,-3.640000104904175,-1.190000057220459
1.3355897627125097,0.1010159999132156,-0.7847039699554443,0.6224439740180969,-0.5249999761581421,-3.237499952316284,-0.7699999809265137
1.3558259712384568,0.1071159988641738,-0.7829959988594055,0.6236639618873596,-1.347499966621399,-2.414999961853028,-0.5774999856948853
1.376062179764404,0.1024799942970275,-0.7837280035018921,0.6202479600906372,-1.995000004768372,-1.3650000095367432,-0.962499976158142
1.396298388290351,0.099551998078823,-0.7839719653129578,0.6214680075645447,-2.012500047683716,-0.5074999928474426,-1.4874999523162842
1.4165345968162981,0.0978439971804618,-0.7876319885253906,0.6258599758148193,-1.8899999856948853,0.1400000005960464,-1.8725000619888303
1.4367708053422452,0.1010159999132156,-0.7847039699554443,0.6246399879455566,-1.6449999809265137,0.6650000214576721,-2.257499933242798
1.4570070138681923,0.1041879951953888,-0.7832399606704712,0.623420000076294,-1.9774999618530276,1.1024999618530271,-2.432500123977661
1.4772432223941394,0.1024799942970275,-0.7834839820861816,0.6226879954338074,-2.625,1.5225000381469729,-2.0999999046325684
1.4974794309200865,0.1019919961690902,-0.7827519774436951,0.6207360029220581,-2.6600000858306885,1.5575000047683716,-1.9424999952316284
1.5177156394460336,0.1027240008115768,-0.7849479913711548,0.6209799647331238,-2.572499990463257,1.5049999952316284,-2.275000095367432
1.5379518479719807,0.0993079990148544,-0.7893399596214294,0.6246399879455566,-2.2925000190734863,1.6449999809265137,-2.5374999046325684
1.5581880564979278,0.099551998078823,-0.7878760099411011,0.6214680075645447,-1.9600000381469729,1.9774999618530276,-2.362499952316284
1.578424265023875,0.0983319953083992,-0.7881199717521667,0.6170759797096252,-1.6100000143051147,1.995000004768372,-2.0824999809265137
1.598660473549822,0.0988200008869171,-0.7932440042495728,0.6170759797096252,-1.2599999904632568,1.7675000429153442,-1.715000033378601
1.618896682075769,0.0973559990525245,-0.7961719632148743,0.6153680086135864,-1.3300000429153442,1.399999976158142,-1.1024999618530271
1.6391328906017162,0.0929640009999275,-0.7976359724998474,0.6126840114593506,-1.5924999713897705,0.9800000190734864,-0.7350000143051147
1.6593690991276633,0.0922319963574409,-0.7969039678573608,0.611952006816864,-1.225000023841858,0.1574999988079071,-0.5774999856948853
1.6796053076536104,0.0907679945230484,-0.7961719632148743,0.6163439750671387,-0.8924999833106995,-0.3499999940395355,-0.2100000083446502
1.6998415161795575,0.0949160009622573,-0.795195996761322,0.6173200011253357,-0.9449999928474426,-0.4900000095367431,0.1924999952316284
1.7200777247055046,0.1010159999132156,-0.7981239557266235,0.6168320178985596,-0.8224999904632568,-0.4375,0.4025000035762787
1.7403139332314517,0.1015039980411529,-0.7988559603691101,0.6104879975318909,-0.9800000190734864,-0.1400000005960464,0.7175000309944153
1.7605501417573988,0.0983319953083992,-0.7990999817848206,0.6102439761161804,-1.0149999856948853,0.1924999952316284,0.9800000190734864
1.7807863502833459,0.0910120010375976,-0.7947080135345459,0.6124399900436401,-0.612500011920929,0.1400000005960464,1.225000023841858
1.801022558809293,0.0888160020112991,-0.7920239567756653,0.6165879964828491,-0.3675000071525574,-0.0874999985098838,1.2949999570846558
1.82125876733524,0.0922319963574409,-0.7939760088920593,0.615123987197876,-0.4200000166893005,-0.2975000143051147,1.347499966621399
1.8414949758611872,0.0988200008869171,-0.794219970703125,0.6117079854011536,-0.4900000095367431,-0.5425000190734863,1.347499966621399
1.8617311843871343,0.1019919961690902,-0.7956839799880981,0.6095119714736938,-0.3499999940395355,-1.0499999523162842,0.9800000190734864
1.8819673929130813,0.0975999981164932,-0.794219970703125,0.6124399900436401,-0.5425000190734863,-0.962499976158142,0.9800000190734864
1.9022036014390284,0.0924759954214096,-0.7988559603691101,0.611952006816864,-0.7875000238418579,-0.7175000309944153,0.9449999928474426
1.9224398099649755,0.0914999991655349,-0.8020280003547668,0.6095119714736938,-0.2100000083446502,-0.7175000309944153,0.8400000333786011
1.9426760184909226,0.0929640009999275,-0.7995879650115967,0.6073160171508789,0.3499999940395355,-0.5950000286102295,0.9800000190734864
1.9629122270168697,0.0946719944477081,-0.7947080135345459,0.607804000377655,0.3149999976158142,-0.3499999940395355,0.9975000023841858
1.9831484355428168,0.0941839963197708,-0.7922679781913757,0.6112200021743774,0.2975000143051147,-0.3675000071525574,0.7350000143051147
2.003384644068764,0.0914999991655349,-0.7937319874763489,0.6180520057678223,0.2450000047683715,-0.332500010728836,0.4550000131130218
2.0236208525947115,0.0975999981164932,-0.7954399585723877,0.619271993637085,0.0700000002980232,-0.0525000020861625,0.5950000286102295
2.043857061120659,0.100283995270729,-0.794219970703125,0.6124399900436401,-0.1225000023841857,0.1574999988079071,0.8224999904632568
2.064093269646606,0.095160000026226,-0.7922679781913757,0.6075599789619446,0.0350000001490116,-0.0175000000745058,0.5600000023841858
2.0843294781725534,0.0949160009622573,-0.7944639921188354,0.6097559928894043,0.3849999904632568,-0.2100000083446502,0.0525000020861625
2.1045656866985007,0.0939399972558021,-0.7929999828338623,0.6124399900436401,0.7524999976158142,0.0175000000745058,-0.2800000011920929
2.124801895224448,0.0905239954590797,-0.7925119996070862,0.6107319593429565,1.0325000286102295,0.1924999952316284,-0.4025000035762787
2.1450381037503954,0.0922319963574409,-0.7934879660606384,0.6131719946861267,0.8924999833106995,0.2275000065565109,-0.4724999964237213
2.1652743122763427,0.0983319953083992,-0.7944639921188354,0.6117079854011536,0.3675000071525574,0.4025000035762787,-0.4025000035762787
2.18551052080229,0.095160000026226,-0.8000760078430176,0.6090239882469177,0.1924999952316284,0.4550000131130218,-0.2975000143051147
2.2057467293282373,0.0927200019359588,-0.8000760078430176,0.6085360050201416,0.5950000286102295,0.2800000011920929,-0.332500010728836
2.2259829378541847,0.0922319963574409,-0.7986119985580444,0.6092680096626282,0.8400000333786011,0.2100000083446502,-0.3675000071525574
2.246219146380132,0.0922319963574409,-0.7986119985580444,0.6087799668312073,0.699999988079071,0.332500010728836,-0.2975000143051147
2.2664553549060793,0.0946719944477081,-0.7988559603691101,0.607804000377655,0.5950000286102295,0.3849999904632568,-0.1400000005960464
2.2866915634320266,0.0944279953837394,-0.7964159846305847,0.607804000377655,0.6650000214576721,0.2800000011920929,-0.1574999988079071
2.306927771957974,0.0966240018606185,-0.7937319874763489,0.6165879964828491,0.8050000071525574,0.0525000020861625,-0.2450000047683715
2.3271639804839213,0.0927200019359588,-0.7954399585723877,0.6156119704246521,0.4724999964237213,0.2800000011920929,-0.2100000083446502
2.3474001890098686,0.0941839963197708,-0.794219970703125,0.6148799657821655,0.5249999761581421,0.1050000041723251,-0.2100000083446502
2.367636397535816,0.095891997218132,-0.7929999828338623,0.6136599779129028,0.4025000035762787,-0.2800000011920929,-0.2975000143051147
2.387872606061763,0.0924759954214096,-0.7932440042495728,0.6131719946861267,0.0874999985098838,-0.5074999928474426,-0.2800000011920929
2.4081088145877105,0.0944279953837394,-0.7934879660606384,0.6117079854011536,0.4200000166893005,-0.5950000286102295,-0.262499988079071
2.428345023113658,0.0932080000638961,-0.7954399585723877,0.6129279732704163,1.0674999952316284,-0.5074999928474426,-0.2975000143051147
2.448581231639605,0.0927200019359588,-0.7895839810371399,0.6112200021743774,1.0149999856948853,-0.4375,-0.3675000071525574
2.4688174401655525,0.095891997218132,-0.7922679781913757,0.6131719946861267,0.7524999976158142,-0.7175000309944153,-0.3499999940395355
2.4890536486915,0.0949160009622573,-0.7961719632148743,0.6121959686279297,0.7699999809265137,-0.6650000214576721,-0.2800000011920929
2.509289857217447,0.0944279953837394,-0.7939760088920593,0.6134160161018372,0.9449999928474426,-0.7524999976158142,-0.332500010728836
2.5295260657433944,0.0961359962821006,-0.7961719632148743,0.6143919825553894,0.9100000262260436,-0.6650000214576721,-0.3849999904632568
2.5497622742693418,0.1000399962067604,-0.7949519753456116,0.6163439750671387,0.962499976158142,-0.4200000166893005,-0.1749999970197677
2.569998482795289,0.099551998078823,-0.7922679781913757,0.6168320178985596,0.6299999952316284,-0.1924999952316284,0.0525000020861625
2.5902346913212364,0.0961359962821006,-0.7947080135345459,0.6134160161018372,0.4724999964237213,-0.2100000083446502,0.0525000020861625
2.6104708998471837,0.0973559990525245,-0.7939760088920593,0.615123987197876,0.8400000333786011,-0.3849999904632568,-0.1400000005960464
2.630707108373131,0.0966240018606185,-0.7934879660606384,0.6146360039710999,1.1200000047683716,-0.3675000071525574,-0.332500010728836
2.6509433168990784,0.095160000026226,-0.794219970703125,0.6148799657821655,1.1725000143051147,-0.3499999940395355,-0.3675000071525574
2.6711795254250257,0.0961359962821006,-0.7949519753456116,0.6146360039710999,1.1200000047683716,-0.3149999976158142,-0.4375
2.691415733950973,0.0980879962444305,-0.7949519753456116,0.6143919825553894,0.962499976158142,-0.2100000083446502,-0.3499999940395355
2.7116519424769203,0.0961359962821006,-0.7988559603691101,0.6153680086135864,0.7699999809265137,-0.1749999970197677,-0.3149999976158142
2.7318881510028676,0.0946719944477081,-0.7990999817848206,0.6129279732704163,1.2424999475479126,-0.4200000166893005,-0.4900000095367431
2.752124359528815,0.100283995270729,-0.7949519753456116,0.6126840114593506,1.837499976158142,-0.7350000143051147,-0.8575000166893005
2.7723605680547623,0.1041879951953888,-0.7925119996070862,0.614147961139679,1.8725000619888303,-0.8224999904632568,-0.875
2.7925967765807096,0.1029679998755455,-0.7895839810371399,0.616100013256073,1.4700000286102295,-0.5950000286102295,-0.7524999976158142
2.812832985106657,0.1015039980411529,-0.7912920117378235,0.6173200011253357,1.1375000476837158,-0.4900000095367431,-0.612500011920929
2.8330691936326042,0.1015039980411529,-0.7905600070953369,0.6163439750671387,1.225000023841858,-0.4550000131130218,-0.4550000131130218
2.8533054021585516,0.100283995270729,-0.7854359745979309,0.616100013256073,1.1725000143051147,-0.3675000071525574,-0.1749999970197677
2.873541610684499,0.1007720008492469,-0.7873879671096802,0.6131719946861267,1.2424999475479126,-0.3149999976158142,-0.2450000047683715
2.893777819210446,0.1034559980034828,-0.786899983882904,0.615123987197876,1.715000033378601,-0.3675000071525574,-0.5425000190734863
2.9140140277363935,0.1029679998755455,-0.7905600070953369,0.6163439750671387,1.784999966621399,-0.0350000001490116,-0.5249999761581421
2.934250236262341,0.1015039980411529,-0.790071964263916,0.616100013256073,2.065000057220459,0.1225000023841857,-0.4724999964237213
2.954486444788288,0.1015039980411529,-0.786899983882904,0.6173200011253357,2.2049999237060547,-0.0175000000745058,-0.5425000190734863
2.9747226533142355,0.1017479971051216,-0.7866559624671936,0.6185399889945984,1.8200000524520876,-0.0175000000745058,-0.5249999761581421
2.994958861840183,0.1007720008492469,-0.790071964263916,0.6163439750671387,1.5225000381469729,0.1574999988079071,-0.4025000035762787
3.01519507036613,0.0997959971427917,-0.7920239567756653,0.6187840104103088,1.8200000524520876,0.1574999988079071,-0.4550000131130218
3.0354312788920774,0.1024799942970275,-0.7917799949645996,0.6212239861488342,1.8550000190734863,0.2100000083446502,-0.4900000095367431
3.0556674874180247,0.1032119989395141,-0.7905600070953369,0.6222000122070312,1.8899999856948853,0.2975000143051147,-0.6825000047683716
3.075903695943972,0.1005280017852783,-0.7866559624671936,0.6200039982795715,1.6974999904632568,0.2100000083446502,-0.699999988079071
3.0961399044699194,0.0966240018606185,-0.7837280035018921,0.6200039982795715,1.2949999570846558,0.0175000000745058,-0.4550000131130218
3.1163761129958667,0.0971119999885559,-0.7839719653129578,0.6239079833030701,0.8224999904632568,0.0525000020861625,-0.2975000143051147
3.136612321521814,0.1017479971051216,-0.7849479913711548,0.6278119683265686,0.7175000309944153,0.2275000065565109,-0.1574999988079071
3.1568485300477613,0.1046760007739067,-0.7837280035018921,0.6263479590415955,0.6825000047683716,0.2450000047683715,-0.262499988079071
3.1770847385737087,0.1024799942970275,-0.7849479913711548,0.6246399879455566,0.7350000143051147,0.332500010728836,-0.5774999856948853
3.197320947099656,0.1017479971051216,-0.7839719653129578,0.6229320168495178,0.8050000071525574,0.1749999970197677,-0.8924999833106995
3.2175571556256033,0.1015039980411529,-0.7837280035018921,0.6231759786605835,0.699999988079071,0.3849999904632568,-0.8050000071525574
3.2377933641515506,0.1027240008115768,-0.7829959988594055,0.6251279711723328,0.6299999952316284,1.0499999523162842,-0.5774999856948853
3.258029572677498,0.1027240008115768,-0.7817760109901428,0.6256160140037537,0.7524999976158142,1.4175000190734863,-0.4550000131130218
3.2782657812034453,0.1034559980034828,-0.7842159867286682,0.6263479590415955,0.7175000309944153,1.399999976158142,-0.5425000190734863
3.2985019897293926,0.1056519970297813,-0.7883639931678772,0.6283000111579895,0.4375,1.4175000190734863,-0.5600000023841858
3.31873819825534,0.1068719998002052,-0.7888519763946533,0.6290320158004761,0.7875000238418579,1.6100000143051147,-0.4375
3.338974406781287,0.1036999970674514,-0.7856799960136414,0.6251279711723328,1.3300000429153442,1.5575000047683716,-0.2100000083446502
3.3592106153072345,0.1010159999132156,-0.7817760109901428,0.623420000076294,1.5399999618530271,0.9800000190734864,-0.1400000005960464
3.379446823833182,0.1036999970674514,-0.7810440063476562,0.6261039972305298,1.190000057220459,0.4724999964237213,-0.0525000020861625
3.399683032359129,0.1088239997625351,-0.7837280035018921,0.6295199990272522,0.6474999785423279,0.1574999988079071,0.1225000023841857
3.4199192408850765,0.1105320006608963,-0.790071964263916,0.6292759776115417,0.7875000238418579,0.1924999952316284,0.5425000190734863
3.440155449411024,0.1068719998002052,-0.7893399596214294,0.6261039972305298,1.5924999713897705,-0.0350000001490116,0.7350000143051147
3.460391657936971,0.1012599989771843,-0.786899983882904,0.6239079833030701,2.134999990463257,-0.4025000035762787,0.8924999833106995
3.4806278664629184,0.104432001709938,-0.7815319895744324,0.6256160140037537,2.1875,-0.6299999952316284,0.8575000166893005
3.5008640749888658,0.1078479960560798,-0.7786039710044861,0.6243959665298462,2.012500047683716,-0.5074999928474426,0.5950000286102295
3.521100283514813,0.1056519970297813,-0.779092013835907,0.6261039972305298,1.9424999952316284,-0.5074999928474426,0.7875000238418579
3.5413364920407604,0.1022359952330589,-0.7805559635162354,0.6261039972305298,1.6100000143051147,-0.6474999785423279,1.3125
3.5615727005667077,0.0907679945230484,-0.786899983882904,0.6285439729690552,1.5575000047683716,-1.0850000381469729,1.347499966621399
3.581808909092655,0.0885719954967498,-0.7888519763946533,0.6317160129547119,1.995000004768372,-1.5049999952316284,1.1200000047683716
3.6020451176186024,0.0980879962444305,-0.7866559624671936,0.6348879933357239,2.1524999141693115,-0.7350000143051147,1.225000023841858
3.6222813261445497,0.0975999981164932,-0.7866559624671936,0.6361079812049866,1.662500023841858,0.4900000095367431,1.0850000381469729
3.642517534670497,0.095891997218132,-0.798367977142334,0.6458680033683777,1.2074999809265137,1.627500057220459,0.9100000262260436
3.6627537431964443,0.1076039969921112,-0.8108119964599609,0.6678279638290405,1.5399999618530271,3.4825000762939453,1.75
3.6829899517223916,0.1237079948186874,-0.8220359683036804,0.6919839978218079,1.225000023841858,4.65500020980835,2.625
3.703226160248339,0.1268799901008606,-0.8417999744415283,0.6988160014152527,-0.8400000333786011,5.547500133514404,2.9574999809265137
3.7234623687742863,0.1227319985628128,-0.8852319717407227,0.7075999975204468,-3.902499914169312,5.547500133514404,3.867500066757202
3.7436985773002336,0.1076039969921112,-0.9171959757804872,0.7322440147399902,-6.317500114440918,5.914999961853027,5.460000038146973
3.763934785826181,0.0819839984178543,-0.9469639658927916,0.7451759576797485,-8.609999656677246,4.760000228881836,7.682499885559082
3.7841709943521282,0.0653920024633407,-0.9630680084228516,0.7420039772987366,-9.817500114440918,2.8350000381469727,9.922499656677246
3.8044072028780755,0.0727119967341423,-0.9606279730796814,0.7224839925765991,-9.887499809265137,1.9600000381469729,11.147500038146973
3.824643411404023,0.0695400014519691,-0.9347639679908752,0.6995480060577393,-10.202500343322754,1.1200000047683716,10.97249984741211
3.84487961992997,0.0617319978773593,-0.8908439874649048,0.66075199842453,-11.164999961853027,0.0525000020861625,11.147500038146973
3.8651158284559175,0.0524599999189376,-0.8369199633598328,0.6114639639854431,-12.739999771118164,-1.190000057220459,11.725000381469728
3.885352036981865,0.047335997223854,-0.7722600102424622,0.5804759860038757,-12.8100004196167,-1.995000004768372,10.989999771118164
3.905588245507812,0.047580000013113,-0.721019983291626,0.5485119819641113,-11.672499656677246,-2.6424999237060547,9.467499732971191
3.9258244540337595,0.0580720007419586,-0.6751480102539062,0.517524003982544,-9.449999809265137,-2.712500095367432,8.487500190734863
3.9460606625597068,0.0705159977078437,-0.6283000111579895,0.4836079776287079,-7.997499942779541,-2.782500028610229,8.102499961853027
3.966296871085654,0.0636840015649795,-0.6029239892959595,0.4682359993457794,-8.697500228881836,-2.572499990463257,7.577499866485596
3.9865330796116014,0.0507519990205764,-0.6063399910926819,0.4667719900608063,-8.609999656677246,-0.9975000023841858,7.332499980926514
4.006769288137549,0.0641719996929168,-0.6173200011253357,0.4645760059356689,-8.154999732971191,1.680000066757202,7.664999961853027
4.027005496663496,0.0624639987945556,-0.6470879912376404,0.4596959948539734,-7.490000247955322,3.8324999809265137,8.1899995803833
4.047241705189443,0.0463600009679794,-0.6778320074081421,0.4601839780807495,-5.372499942779541,3.954999923706055,8.6274995803833
4.067477913715391,0.0341599993407726,-0.7034519910812378,0.4677479863166809,-1.8899999856948853,3.220000028610229,8.592499732971191
4.087714122241338,0.020983999595046,-0.7263879776000977,0.4926359951496124,1.5399999618530271,3.0625,7.892499923706055
4.107950330767285,0.0026839999482035,-0.7456640005111694,0.517035961151123,3.289999961853028,2.047499895095825,7.472499847412109
4.128186539293233,-0.0097599998116493,-0.7512759566307068,0.5292360186576843,4.252500057220459,-1.0149999856948853,7.71750020980835
4.14842274781918,0.0065879998728632,-0.7444440126419067,0.5482679605484009,7.315000057220459,-3.622499942779541,6.510000228881836
4.168658956345127,0.0309880003333091,-0.7468839883804321,0.5736439824104309,11.515000343322754,-4.497499942779541,4.042500019073486
4.188895164871075,0.0497759990394115,-0.7420039772987366,0.5931639671325684,14.822500228881836,-5.494999885559082,3.115000009536743
4.209131373397022,0.0602679997682571,-0.7427359819412231,0.5914559960365295,15.505000114440918,-6.457499980926514,3.184999942779541
4.229367581922969,0.0614879988133907,-0.7639639973640442,0.5921880006790161,14.664999961853027,-5.355000019073486,3.552500009536743
4.249603790448917,0.0507519990205764,-0.7778719663619995,0.615123987197876,15.207500457763672,-2.6424999237060547,3.954999923706055
4.269839998974864,0.061243999749422,-0.8022719621658325,0.6412320137023926,12.72249984741211,1.7675000429153442,3.815000057220459
4.290076207500811,0.0448959991335868,-0.831063985824585,0.6619719862937927,11.40999984741211,3.9375,3.307500123977661
4.3103124160267585,0.0163480006158351,-0.8557080030441284,0.685151994228363,11.112500190734863,4.497499942779541,2.9574999809265137
4.330548624552706,0.0068319998681545,-0.875715970993042,0.6980839967727661,10.86750030517578,4.392499923706055,4.269999980926514
4.350784833078653,0.002195999957621,-0.8888919949531555,0.7088199853897095,12.827500343322754,4.322500228881836,6.40500020980835
4.3710210416046005,0.0124439997598528,-0.8796199560165405,0.7158960103988647,16.309999465942383,4.164999961853027,7.244999885559082
4.391257250130548,0.0275719985365867,-0.8713240027427673,0.7110159993171692,17.604999542236328,3.5174999237060547,6.492499828338623
4.411493458656495,0.0251320004463195,-0.8618080019950867,0.6900320053100586,16.344999313354492,1.924999952316284,5.022500038146973
4.431729667182442,0.0092719998210668,-0.8652240037918091,0.6685599684715271,12.61750030517578,0.0700000002980232,4.392499923706055
4.45196587570839,-0.0024399999529123,-0.8620519638061523,0.6710000038146973,10.02750015258789,-0.5249999761581421,4.480000019073486
4.472202084234337,0.0041479999199509,-0.8498519659042358,0.6856399774551392,8.8725004196167,-0.2450000047683715,4.357500076293945
4.492438292760284,0.0102479998022317,-0.8486319780349731,0.6983279585838318,6.5625,0.3849999904632568,4.164999961853027
4.512674501286232,0.0043919999152421,-0.8630279898643494,0.6919839978218079,1.4175000190734863,0.9275000095367432,5.232500076293945
4.532910709812179,0.0117119997739791,-0.8818159699440002,0.6997919678688049,-2.6075000762939453,1.8899999856948853,6.877500057220459
4.553146918338126,0.0112239997833967,-0.8857199549674988,0.7234599590301514,-4.340000152587891,3.255000114440918,8.645000457763672
4.573383126864074,-0.0080519998446106,-0.9054839611053468,0.7288280129432678,-6.860000133514404,4.21750020980835,9.22249984741211
4.593619335390021,-0.0256199985742568,-0.9250040054321288,0.7185800075531006,-9.292500495910645,3.867500066757202,9.520000457763672
4.613855543915968,-0.0324519984424114,-0.9257360100746156,0.7088199853897095,-10.885000228881836,3.150000095367432,10.605000495910645
4.634091752441916,-0.0351359993219375,-0.9062159657478333,0.7112599611282349,-10.86750030517578,2.8350000381469727,11.095000267028809
4.654327960967863,-0.0361119993031024,-0.9118279814720154,0.7149199843406677,-11.88249969482422,3.0450000762939453,11.427499771118164
4.67456416949381,-0.0326960012316703,-0.933299958705902,0.7022320032119751,-14.244999885559082,3.7274999618530273,12.65250015258789
4.694800378019758,-0.0375759974122047,-0.9320799708366394,0.6758800148963928,-15.942500114440918,3.920000076293945,13.737500190734863
4.715036586545705,-0.037331998348236,-0.9110959768295288,0.67221999168396,-16.204999923706055,3.220000028610229,13.755000114440918
4.735272795071652,-0.0158599987626075,-0.876691997051239,0.6766119599342346,-16.852500915527344,4.007500171661377,13.125
4.7555090035975995,-0.0060999998822808,-0.8488759994506836,0.6539199948310852,-18.655000686645508,4.585000038146973,12.022500038146973
4.775745212123547,-0.013663999736309,-0.8408240079879761,0.6314719915390015,-20.51000022888184,4.724999904632568,10.97249984741211
4.795981420649494,-0.0302559994161129,-0.8435080051422119,0.6243959665298462,-21.0,4.900000095367432,10.09749984741211
4.8162176291754415,-0.0397720001637935,-0.8374080061912537,0.6121959686279297,-21.104999542236328,5.232500076293945,9.922499656677246
4.836453837701389,-0.0478239990770816,-0.8364319801330566,0.6082919836044312,-22.78499984741211,6.195000171661377,10.255000114440918
4.856690046227336,-0.0570959970355033,-0.8347240090370178,0.5987759828567505,-23.83500099182129,6.877500057220459,10.09749984741211
4.8769262547532835,-0.0712479948997497,-0.8364319801330566,0.5733999609947205,-24.95499992370605,6.720000267028809,8.662500381469727
4.897162463279231,-0.0910120010375976,-0.8542439937591553,0.5533919930458069,-26.0049991607666,6.28249979019165,8.78499984741211
4.917398671805178,-0.0936959981918335,-0.87254399061203,0.5521720051765442,-25.84749984741211,6.247499942779541,9.677499771118164
4.937634880331125,-0.0878399983048439,-0.8691279888153076,0.5533919930458069,-25.77750015258789,6.369999885559082,10.657500267028809
4.957871088857073,-0.0861319974064827,-0.8742519617080688,0.5470479726791382,-28.2450008392334,5.425000190734863,11.864999771118164
4.97810729738302,-0.0844239965081214,-0.8876720070838928,0.5375319719314575,-30.292499542236328,4.53249979019165,12.932499885559082
4.998343505908967,-0.0849120020866394,-0.891819953918457,0.5463159680366516,-32.602500915527344,4.585000038146973,13.19499969482422
5.018579714434915,-0.0812520012259483,-0.8981639742851257,0.5687639713287354,-34.755001068115234,5.477499961853027,11.88249969482422
5.038815922960862,-0.0871080011129379,-0.9259799718856812,0.5780360102653503,-35.122501373291016,6.912499904632568,10.447500228881836
5.059052131486809,-0.0929640009999275,-0.958675980567932,0.5675439834594727,-33.35499954223633,8.1899995803833,10.149999618530272
5.079288340012757,-0.0868639945983886,-0.9864919781684875,0.5409479737281799,-30.1875,8.977499961853027,9.274999618530272
5.099524548538704,-0.0836919993162155,-1.001863956451416,0.5289919972419739,-27.475000381469727,8.71500015258789,7.962500095367432
5.119760757064651,-0.0929640009999275,-0.9720959663391112,0.5409479737281799,-25.165000915527344,7.595000267028809,7.105000019073486
5.139996965590599,-0.1034559980034828,-0.9474520087242126,0.5416799783706665,-21.420000076293945,5.740000247955322,4.882500171661377
5.160233174116546,-0.1317600011825561,-0.9391559958457948,0.517524003982544,-18.96999931335449,3.884999990463257,2.309999942779541
5.180469382642493,-0.1268799901008606,-0.961847960948944,0.4926359951496124,-20.614999771118164,3.0450000762939453,0.5950000286102295
5.2007055911684406,-0.1254159957170486,-1.001376032829285,0.4862920045852661,-22.24250030517578,4.392499923706055,0.1749999970197677
5.220941799694388,-0.1376159936189651,-0.9957639575004578,0.4889760017395019,-19.372499465942383,3.972500085830689,1.75
5.241178008220335,-0.1427399963140487,-1.0057679414749146,0.4653079807758331,-15.032500267028809,1.3125,2.5199999809265137
5.2614142167462825,-0.143227994441986,-1.0160160064697266,0.4499360024929046,-9.9399995803833,-0.8050000071525574,1.4874999523162842
5.28165042527223,-0.1420079916715622,-0.998203992843628,0.4740919768810272,-3.8324999809265137,-1.2424999475479126,-0.7524999976158142
5.301886633798177,-0.1354199945926666,-0.9547719955444336,0.530456006526947,0.2450000047683715,-0.262499988079071,-1.662500023841858
5.3221228423241245,-0.1000399962067604,-0.8923079967498779,0.5426560044288635,0.4724999964237213,0.2275000065565109,-0.0175000000745058
5.342359050850072,-0.061243999749422,-0.8361879587173462,0.4975159764289856,-1.715000033378601,-0.1225000023841857,-0.2975000143051147
5.362595259376019,-0.0585599988698959,-0.7722600102424622,0.4306599795818329,-2.7300000190734863,-0.4375,-3.220000028610229
5.382831467901966,-0.0524599999189376,-0.7058919668197632,0.3999159932136535,-3.4825000762939453,-0.5074999928474426,-7.227499961853027
5.403067676427914,-0.0500199981033802,-0.6553840041160583,0.4001599848270416,-3.7274999618530273,0.1924999952316284,-10.167500495910645
5.423303884953861,-0.0607559978961944,-0.6329360008239746,0.4301719963550567,-0.9975000023841858,0.5249999761581421,-13.212499618530272
5.443540093479808,-0.0912560001015663,-0.6507480144500732,0.3986960053443908,1.7675000429153442,-3.797500133514404,-17.587499618530273
5.463776302005756,-0.1010159999132156,-0.6539199948310852,0.3213479816913605,-5.057499885559082,-12.529999732971191,-15.015000343322754
5.484012510531703,-0.0819839984178543,-0.6651439666748047,0.3577039837837219,-26.600000381469727,0.612500011920929,-1.9600000381469729
5.50424871905765,-0.0631959959864616,-0.7107719779014587,0.3652679920196533,-27.440000534057617,4.795000076293945,0.5249999761581421
5.524484927583598,-0.0551439970731735,-0.7788479924201965,0.3618519902229309,-23.905000686645508,6.5625,-1.5575000047683716
5.544721136109545,-0.0385520011186599,-0.8169119954109192,0.3645359873771667,-16.239999771118164,9.135000228881836,-9.012499809265137
5.564957344635492,-0.0624639987945556,-0.8271600008010864,0.3784439861774444,-6.090000152587891,11.357500076293944,-19.21500015258789
5.58519355316144,-0.1107759997248649,-0.8435080051422119,0.3962559998035431,0.2800000011920929,9.59000015258789,-24.65749931335449
5.605429761687387,-0.1085800006985664,-0.8042240142822266,0.3982079923152923,-1.715000033378601,7.542500019073486,-24.9375
5.625665970213334,-0.0878399983048439,-0.7527399659156799,0.3723439872264862,-11.234999656677246,11.725000381469728,-23.274999618530277
5.645902178739282,-0.0805199965834617,-0.7112599611282349,0.2725479900836944,-25.07749938964844,16.030000686645508,-20.457500457763672
5.666138387265229,-0.100283995270729,-0.669048011302948,0.1700679957866668,-28.47249984741211,10.0625,-14.752500534057615
5.686374595791176,-0.1237079948186874,-0.6463559865951538,0.1627479940652847,-35.962501525878906,8.837499618530273,-16.4325008392334
5.7066108043171235,-0.1600639969110489,-0.6117079854011536,0.1661639958620071,-43.85499954223633,12.005000114440918,-12.792500495910645
5.726847012843071,-0.195932000875473,-0.6580680012702942,0.1749479919672012,-58.310001373291016,11.44499969482422,-11.30500030517578
5.747083221369018,-0.1847079992294311,-0.8171559572219849,0.1376159936189651,-69.40499877929688,11.917500495910645,-12.739999771118164
5.7673194298949655,-0.1666519939899444,-1.039927959442139,0.118827998638153,-70.55999755859375,4.21750020980835,-15.539999961853027
5.787555638420913,-0.2725479900836944,-1.205359935760498,0.114436000585556,-54.31999969482422,-10.9375,-12.494999885559082
5.80779184694686,-0.2708399891853332,-1.3512719869613647,0.2813319861888885,-35.682498931884766,-23.25749969482422,-2.782500028610229
5.8280280554728074,0.0197639986872673,-1.4454560279846191,0.4682359993457794,-11.147500038146973,-23.78249931335449,4.112500190734863
5.848264263998755,0.1107759997248649,-1.1741279363632202,0.3198840022087097,27.70249938964844,-21.4375,2.275000095367432
5.868500472524702,0.1041879951953888,-0.868395984172821,0.2078879922628402,34.09000015258789,-32.532501220703125,-1.0149999856948853
5.888736681050649,0.0041479999199509,-0.6666079759597778,0.0551439970731735,10.885000228881836,-33.372501373291016,-3.0450000762939453
5.908972889576597,0.261568009853363,-0.7305359840393066,0.2666919827461242,-23.83500099182129,-43.18999862670898,-3.202500104904175
5.929209098102544,0.1656759977340698,-1.0030839443206787,0.1146799996495246,-36.470001220703125,2.327500104904175,6.037499904632568
5.949445306628491,0.090279996395111,-0.9606279730796814,0.2191119939088821,-16.537500381469727,18.1299991607666,3.5350000858306885
5.969681515154439,0.0634399950504303,-1.0052800178527832,0.1915400028228759,-20.614999771118164,6.965000152587891,2.5199999809265137
5.989917723680386,0.0090279998257756,-0.9835639595985411,0.2110600024461746,-16.8174991607666,10.220000267028809,1.1200000047683716
6.010153932206333,-0.0273279994726181,-0.9977160096168518,0.1781200021505355,-25.165000915527344,10.045000076293944,-3.552500009536743
6.030390140732281,-0.0500199981033802,-1.0169919729232788,0.1834879964590072,-4.917500019073486,-0.9100000262260436,-5.949999809265137
6.050626349258228,-0.0065879998728632,-0.9247599840164183,0.3025600016117096,4.987500190734863,-16.135000228881836,-2.940000057220459
6.070862557784175,-0.0029279999434947,-0.9879559874534608,0.2513200044631958,-8.942500114440918,-8.855000495910645,-1.1200000047683716
6.091098766310123,0.0036599999293684,-0.9874680042266846,0.2181359976530075,-21.700000762939453,-25.53249931335449,-0.7350000143051147
6.11133497483607,-0.0075639998540282,-1.0094280242919922,0.1971519887447357,0.6474999785423279,-9.607500076293944,2.1700000762939453
6.131571183362017,-0.0453839972615242,-1.006500005722046,0.1451800018548965,2.572499990463257,-20.912500381469727,4.480000019073486
6.1518073918879645,-0.0080519998446106,-1.0252879858016968,0.1722639948129654,0.7350000143051147,-38.9375,8.399999618530273
6.172043600413912,0.0190319996327161,-1.0450519323349,0.1812919974327087,9.3100004196167,-36.71500015258789,13.545000076293944
6.192279808939859,0.0314759984612464,-1.0477359294891355,0.175924003124237,20.440000534057617,-36.032501220703125,16.940000534057617
6.2125160174658065,0.0200079996138811,-1.034071922302246,0.1783639937639236,28.94499969482422,-39.165000915527344,18.76000022888184
6.232752225991754,-0.0014639999717473,-1.0343159437179563,0.1869039982557296,33.54750061035156,-43.15499877929688,20.125
6.252988434517701,-0.0090279998257756,-1.0352920293807983,0.1895879954099655,36.8025016784668,-47.98500061035156,21.06999969482422
6.2732246430436485,-0.0034159999340772,-1.011379957199097,0.1995919942855835,40.040000915527344,-54.14500045776367,23.48500061035156
6.293460851569596,0.0178119987249374,-0.935252010822296,0.2215519994497299,40.880001068115234,-59.81499862670898,28.332500457763672
6.313697060095543,0.0117119997739791,-0.8869400024414062,0.1991039961576461,35.33250045776367,-59.01000213623047,35.90999984741211
6.33393326862149,0.0368440002202987,-0.8376519680023193,0.1693359911441803,34.59749984741211,-57.71500015258789,41.650001525878906
6.354169477147438,0.0802759975194931,-0.8056879639625549,0.1505479961633682,33.564998626708984,-52.290000915527344,48.352500915527344
6.374405685673385,0.0785679966211319,-0.7956839799880981,0.1027240008115768,27.05500030517578,-39.95249938964844,57.13750076293945
6.394641894199332,0.0241560004651546,-0.8698599934577942,0.0978439971804618,19.337499618530277,-26.72249984741211,62.650001525878906
6.41487810272528,-0.0119559997692704,-0.9518439769744872,0.1883679926395416,8.994999885559082,-22.01499938964844,64.99500274658203
6.435114311251227,-0.006343999877572,-1.1931599378585815,0.2073999941349029,-3.972500085830689,-19.70499992370605,62.15999984741211
6.455350519777174,-0.08661999553442,-1.2473279237747192,0.2300919890403747,14.770000457763672,-9.239999771118164,51.15250015258789
6.475586728303122,-0.2425359934568405,-1.1746159791946411,0.3045119941234588,26.862499237060547,-17.762500762939453,37.817501068115234
6.495822936829069,-0.3701480031013489,-1.0857999324798584,0.3838119804859161,22.434999465942383,-41.43999862670898,22.96000099182129
6.516059145355016,-0.4111399948596954,-1.0211399793624878,0.4340759813785553,7.525000095367432,-60.375,13.789999961853027
6.536295353880964,-0.338916003704071,-0.9154880046844482,0.4230960011482239,-8.382499694824219,-65.99250030517578,16.677499771118164
6.556531562406911,-0.2898719906806946,-0.8122760057449341,0.3337920010089874,-21.262500762939453,-65.67749786376953,29.049999237060547
6.576767770932858,-0.2378999888896942,-0.7005239725112915,0.2923119962215423,-30.887500762939453,-65.55500030517578,40.70500183105469
6.597003979458806,-0.2020319998264312,-0.6434279680252075,0.310368001461029,-46.27000045776367,-67.9000015258789,49.227500915527344
6.617240187984753,-0.185928001999855,-0.7388319969177246,0.3530679941177368,-63.26250076293945,-71.68000030517578,50.85499954223633
6.6374763965107,-0.2093520015478134,-0.9057279825210572,0.3772239983081817,-67.88249969482422,-77.61250305175781,45.86750030517578
6.6577126050366475,-0.2066679894924163,-0.9901520013809204,0.3767359852790832,-54.63500213623047,-84.31500244140625,38.255001068115234
6.677948813562595,-0.1766559928655624,-0.9533079862594604,0.3364759981632232,-35.03499984741211,-86.0999984741211,34.29999923706055
6.698185022088542,-0.0941839963197708,-0.6988160014152527,0.3013399839401245,-14.175000190734863,-80.70999908447266,38.36000061035156
6.7184212306144895,-0.0963799953460693,-0.6707559823989868,0.2803559899330139,-21.104999542236328,-74.67250061035156,42.560001373291016
6.738657439140437,-0.1737279891967773,-0.8076399564743042,0.2235039919614792,-36.102500915527344,-66.88500213623047,43.3125
6.758893647666384,-0.2222839891910553,-1.020651936531067,0.2073999941349029,-45.9375,-63.27999877929688,34.720001220703125
6.779129856192331,-0.2457079887390136,-1.1936479806900024,0.2881639897823334,-45.13249969482422,-65.87000274658203,21.770000457763672
6.799366064718279,-0.210327997803688,-1.2414720058441162,0.3772239983081817,-37.59000015258789,-75.12750244140625,9.292500495910645
6.819602273244226,-0.2064239978790283,-1.1646119356155396,0.4172399938106537,-23.59000015258789,-77.57749938964844,3.849999904632568
6.839838481770173,-0.2154520004987716,-1.0721359252929688,0.4245599806308746,-12.355000495910645,-78.62750244140625,3.5
6.860074690296121,-0.1983719915151596,-1.0011320114135742,0.407723993062973,-8.015000343322754,-81.67250061035156,5.057499885559082
6.880310898822068,-0.1934919953346252,-0.9608719944953918,0.3208599984645843,-12.635000228881836,-87.23750305175781,8.102499961853027
6.900547107348015,-0.1671399921178817,-0.90475195646286,0.3115879893302917,-10.517499923706056,-84.61250305175781,10.779999732971191
6.920783315873963,-0.1720200031995773,-0.8827919960021973,0.2681559920310974,-10.482500076293944,-81.25250244140625,12.092499732971191
6.94101952439991,-0.2069119960069656,-0.8295999765396118,0.2618120014667511,-12.862500190734863,-80.29000091552734,11.392499923706056
6.961255732925857,-0.1869039982557296,-0.748591959476471,0.3154920041561126,-19.424999237060547,-80.30750274658203,9.607500076293944
6.981491941451805,-0.2740119993686676,-0.7812879681587219,0.3037799894809723,-33.897499084472656,-76.61499786376953,7.385000228881836
7.001728149977752,-0.1371279954910278,-0.977952003479004,0.1890999972820282,-31.21999931335449,-92.54000091552734,26.0049991607666
7.021964358503699,-0.5577839612960815,-0.9162200093269348,0.4196799993515014,-40.09249877929688,-104.8249969482422,99.94249725341795
7.042200567029647,-0.375027984380722,-1.0062559843063354,0.330375999212265,-49.34999847412109,-100.60749816894533,30.48500061035156
7.062436775555594,-0.3120760023593902,-1.0311440229415894,0.3172000050544739,-25.200000762939453,-89.11000061035156,12.197500228881836
7.082672984081541,-0.234484001994133,-1.0362679958343506,0.3230559825897217,-11.550000190734863,-91.71749877929688,6.667500019073486
7.1029091926074885,-0.17323999106884,-0.9630680084228516,0.3052439987659454,6.667500019073486,-84.92749786376953,-2.257499933242798
7.123145401133436,-0.0663679987192154,-0.937936007976532,0.3089039921760559,15.539999961853027,-68.30249786376953,-9.135000228881836
7.143381609659383,-0.1139479950070381,-1.007964015007019,0.3201279938220978,4.182499885559082,-55.43999862670898,-4.462500095367432
7.1636178181853305,-0.0239119995385408,-1.066767930984497,0.2405840009450912,-4.112500190734863,-70.01750183105469,-5.039999961853027
7.183854026711278,-0.0168359987437725,-1.030411958694458,0.23887600004673,4.21750020980835,-57.977500915527344,-6.177500247955322
7.204090235237225,-0.0739319995045661,-1.0155279636383057,0.2376559972763061,5.582499980926514,-45.709999084472656,-7.71750020980835
7.2243264437631725,-0.1015039980411529,-0.9882000088691713,0.2339959889650344,3.7274999618530273,-46.72499847412109,-8.417500495910645
7.24456265228912,-0.1010159999132156,-0.975268006324768,0.248879998922348,6.579999923706055,-40.61750030517578,-9.782500267028809
7.264798860815067,-0.0966240018606185,-0.9045079946517944,0.2598600089550018,8.207500457763672,-32.217498779296875,-13.842499732971191
7.285035069341014,-0.0505079999566078,-0.8559519648551941,0.2396079897880554,6.965000152587891,-30.905000686645508,-16.239999771118164
7.305271277866962,0.0214719995856285,-0.8771799802780151,0.201787993311882,0.3849999904632568,-23.69499969482422,-12.862500190734863
7.325507486392909,0.0231800004839897,-0.924515962600708,0.1866599917411804,-0.5950000286102295,-18.357500076293945,-9.047499656677246
7.345743694918856,0.0117119997739791,-0.9564799666404724,0.1908079981803894,-2.6075000762939453,-14.262499809265137,-5.53000020980835
7.365979903444804,-0.0239119995385408,-0.987223982810974,0.1729959994554519,-3.237499952316284,-9.012499809265137,-4.550000190734863
7.386216111970751,-0.0366000011563301,-1.018455982208252,0.1898320019245147,-5.635000228881836,-5.320000171661377,-5.337500095367432
7.406452320496698,-0.0134199997410178,-1.038707971572876,0.183243989944458,-6.5625,-6.264999866485596,-8.050000190734863
7.426688529022646,0.0124439997598528,-1.002351999282837,0.1766559928655624,-5.84499979019165,-8.27750015258789,-12.442500114440918
7.446924737548593,0.0197639986872673,-0.9725840091705322,0.1578679978847503,-7.682499885559082,-8.697500228881836,-16.55500030517578
7.46716094607454,0.0314759984612464,-0.9686799645423888,0.1827559918165207,-10.832500457763672,-8.960000038146973,-16.905000686645508
7.487397154600488,0.0751519948244094,-0.9608719944953918,0.1986159980297088,-12.6875,-6.807499885559082,-12.512499809265137
7.507633363126435,0.1324919909238815,-0.9659959673881532,0.1739719957113266,-10.86750030517578,-1.4175000190734863,-8.1899995803833
7.527869571652382,0.1378600001335144,-1.0094280242919922,0.1820240020751953,-7.927500247955322,7.577499866485596,-5.897500038146973
7.54810578017833,0.085156001150608,-1.0452959537506104,0.2283839881420135,-1.8200000524520876,14.770000457763672,-3.4825000762939453
7.568341988704277,-0.0165919996798038,-1.0416359901428225,0.2969479858875274,6.177500247955322,14.350000381469728,0.9100000262260436
7.588578197230224,-0.0914999991655349,-1.0118680000305176,0.321835994720459,14.36750030517578,9.5024995803833,3.867500066757202
7.6088144057561715,-0.0670999959111213,-0.937936007976532,0.2866999804973602,21.57749938964844,8.4350004196167,0.6825000047683716
7.629050614282119,-0.0461159981787204,-0.9076799750328064,0.2398519963026046,17.622499465942383,13.649999618530272,-1.3125
7.649286822808066,0.0087839998304843,-0.9062159657478333,0.2317999899387359,7.612500190734863,16.799999237060547,0.2275000065565109
7.6695230313340135,0.0397720001637935,-0.9845399856567384,0.2374119907617569,-4.007500171661377,19.84499931335449,3.6575000286102295
7.689759239859961,0.0302559994161129,-1.0228480100631714,0.2776719927787781,-3.4649999141693115,17.727500915527344,2.9574999809265137
7.709995448385908,-0.0409919992089271,-1.0265079736709597,0.2979239821434021,2.9049999713897705,17.447500228881836,0.2800000011920929
7.730231656911855,-0.0949160009622573,-1.0003999471664429,0.3223240077495575,7.664999961853027,12.65250015258789,-3.569999933242798
7.750467865437803,-0.0802759975194931,-0.936959981918335,0.3494080007076263,12.337499618530272,7.332499980926514,-7.472499847412109
7.77070407396375,-0.0646599978208541,-0.9106079936027528,0.3237879872322082,11.567500114440918,8.837499618530273,-6.789999961853027
7.790940282489697,-0.0551439970731735,-0.9023119807243348,0.2984119951725006,8.78499984741211,10.53499984741211,-2.9749999046325684
7.811176491015645,-0.0427000001072883,-0.9562360048294068,0.2718159854412079,3.0274999141693115,11.375,0.4900000095367431
7.831412699541592,-0.0341599993407726,-1.0167479515075684,0.2735239863395691,0.4900000095367431,13.702500343322754,1.1200000047683716
7.851648908067539,-0.0175679996609687,-1.0003999471664429,0.3025600016117096,2.712500095367432,14.927499771118164,-1.2599999904632568
7.871885116593487,-0.0146399997174739,-0.9606279730796814,0.3225679993629455,6.352499961853027,15.38249969482422,-4.235000133514404
7.892121325119434,-0.0234239995479583,-0.933299958705902,0.334767997264862,8.539999961853027,16.15250015258789,-5.53000020980835
7.912357533645381,-0.0563639998435974,-0.9340319633483888,0.2937760055065155,6.667500019073486,20.177499771118164,-4.900000095367432
7.932593742171329,-0.0634399950504303,-0.9374479651451112,0.2759639918804168,5.127500057220459,21.6825008392334,-4.8125
7.952829950697276,-0.0732000023126602,-0.9545279741287231,0.2793799936771393,4.392499923706055,22.5575008392334,-5.09250020980835
7.973066159223223,-0.0817399993538856,-0.952575981616974,0.297435998916626,4.357500076293945,22.46999931335449,-5.267499923706055
7.993302367749171,-0.0914999991655349,-0.9247599840164183,0.3091479837894439,4.567500114440918,22.049999237060547,-4.462500095367432
8.013538576275117,-0.1015039980411529,-0.9115839600563048,0.310368001461029,3.3949999809265137,21.59499931335449,-2.782500028610229
8.033774784801064,-0.1134599968791008,-0.938423991203308,0.2962159812450409,1.5924999713897705,20.684999465942383,-0.9800000190734864
8.054010993327012,-0.1127279996871948,-0.9486719965934752,0.2913359999656677,1.0149999856948853,18.479999542236328,-0.2100000083446502
8.074247201852959,-0.1076039969921112,-0.9550159573554992,0.2964600026607513,-0.0874999985098838,17.2549991607666,0.0700000002980232
8.094483410378906,-0.1061399951577186,-0.9555040001869202,0.2942639887332916,-0.7524999976158142,16.572500228881836,0.3675000071525574
8.114719618904854,-0.1122400015592575,-0.9552599787712096,0.2947520017623901,-0.7350000143051147,16.170000076293945,0.4375
8.134955827430801,-0.1237079948186874,-0.9611159563064576,0.2906039953231811,-0.8050000071525574,15.592499732971191,0.4375
8.155192035956748,-0.1158999949693679,-0.966484010219574,0.2952399849891662,-0.7524999976158142,14.612500190734863,-0.2100000083446502
8.175428244482696,-0.1054079979658126,-0.9633119702339172,0.3045119941234588,-0.5249999761581421,14.279999732971191,-1.1375000476837158
8.195664453008643,-0.1054079979658126,-0.9503799676895142,0.3152479827404022,-0.0525000020861625,13.720000267028809,-2.0824999809265137
8.21590066153459,-0.1141919940710067,-0.9454999566078186,0.3223240077495575,-0.5074999928474426,12.547499656677246,-2.257499933242798
8.236136870060538,-0.1232199966907501,-0.9437919855117798,0.3252519965171814,-1.0499999523162842,10.09749984741211,-1.9600000381469729
8.256373078586485,-0.1234639957547187,-0.9474520087242126,0.31768798828125,-0.8924999833106995,7.787499904632568,-2.012500047683716
8.276609287112432,-0.1183400005102157,-0.9503799676895142,0.3186639845371246,-0.2450000047683715,5.932499885559082,-1.715000033378601
8.29684549563838,-0.1183400005102157,-0.9491599798202516,0.3172000050544739,0.2100000083446502,4.130000114440918,-1.0850000381469729
8.317081704164327,-0.1158999949693679,-0.9376919865608216,0.3128080070018768,0.7875000238418579,2.450000047683716,-0.1400000005960464
8.337317912690274,-0.1117519959807396,-0.935252010822296,0.3113439977169037,0.3149999976158142,0.8924999833106995,1.4524999856948853
8.357554121216221,-0.115167997777462,-0.9396439790725708,0.3084160089492798,-0.0175000000745058,-0.1749999970197677,2.6600000858306885
8.377790329742169,-0.1222440004348754,-0.945743978023529,0.3113439977169037,-0.1050000041723251,-0.9800000190734864,3.4825000762939453
8.398026538268116,-0.124439999461174,-0.9476959705352784,0.3159799873828888,0.1050000041723251,-2.345000028610229,4.182499885559082
8.418262746794063,-0.1241960003972053,-0.9469639658927916,0.3184199929237366,0.6299999952316284,-4.025000095367432,5.144999980926514
8.43849895532001,-0.1249279975891113,-0.9398880004882812,0.3193959891796112,0.8400000333786011,-6.125,6.002500057220459
8.458735163845958,-0.1320039927959442,-0.9428159594535828,0.3181760013103485,0.7175000309944153,-7.735000133514404,7.262499809265137
8.478971372371905,-0.1417640000581741,-0.9464759826660156,0.3106119930744171,0.7350000143051147,-9.449999809265137,8.8725004196167
8.499207580897853,-0.1476199924945831,-0.9481839537620544,0.305976003408432,1.1024999618530271,-11.4975004196167,10.727499961853027
8.5194437894238,-0.1525000035762787,-0.952575981616974,0.3003639876842499,0.7350000143051147,-14.087499618530272,15.067500114440918
8.539679997949747,-0.1559159904718399,-0.9584319591522216,0.2954840064048767,1.662500023841858,-14.822500228881836,16.99250030517578
8.559916206475695,-0.1749479919672012,-0.9562360048294068,0.3015840053558349,3.009999990463257,-15.890000343322754,19.075000762939453
8.580152415001642,-0.1866599917411804,-0.9318360090255736,0.3089039921760559,4.724999904632568,-17.674999237060547,20.107500076293945
8.60038862352759,-0.2000799924135208,-0.9274439811706544,0.310368001461029,4.007500171661377,-20.14249992370605,21.64750099182129
8.620624832053537,-0.1966639906167984,-0.9284200072288512,0.3193959891796112,2.3975000381469727,-23.57250022888184,23.78249931335449
8.640861040579484,-0.1988599896430969,-0.9274439811706544,0.3123199939727783,0.0874999985098838,-25.707500457763672,25.30500030517578
8.661097249105431,-0.1915400028228759,-0.9225639700889589,0.3101239800453186,-0.2800000011920929,-28.489999771118164,26.670000076293945
8.681333457631379,-0.1866599917411804,-0.8937720060348511,0.322079986333847,-0.4200000166893005,-30.13500022888184,26.739999771118164
8.701569666157326,-0.1878799945116043,-0.8532679677009583,0.3557519912719726,-2.4674999713897705,-32.060001373291016,26.040000915527344
8.721805874683273,-0.1869039982557296,-0.8220359683036804,0.3813720047473907,-5.949999809265137,-33.459999084472656,25.07749938964844
8.74204208320922,-0.191783994436264,-0.8122760057449341,0.4004040062427521,-10.605000495910645,-33.51250076293945,24.482500076293945
8.762278291735168,-0.205935999751091,-0.8361879587173462,0.4099199771881103,-15.190000534057615,-34.10750198364258,22.78499984741211
8.782514500261115,-0.2032520025968551,-0.8754720091819763,0.4311479926109314,-18.30500030517578,-34.58000183105469,20.457500457763672
8.802750708787062,-0.1734839975833892,-0.9257360100746156,0.4596959948539734,-19.092500686645508,-32.34000015258789,18.51499938964844
8.82298691731301,-0.1729959994554519,-0.9386679530143738,0.4635999798774719,-15.050000190734863,-26.862499237060547,17.184999465942383
8.843223125838957,-0.2078879922628402,-0.8964560031890869,0.4394440054893493,-11.74250030517578,-24.622499465942383,16.502500534057617
8.863459334364904,-0.2620559930801391,-0.826915979385376,0.4257799983024597,-11.795000076293944,-25.44499969482422,16.467500686645508
8.883695542890852,-0.2967039942741394,-0.7817760109901428,0.4579879939556122,-15.119999885559082,-27.317501068115234,16.362499237060547
8.903931751416799,-0.2969479858875274,-0.786899983882904,0.4711639881134033,-18.287500381469727,-27.93000030517578,14.682499885559082
8.924167959942746,-0.2766959965229034,-0.8225240111351013,0.4635999798774719,-18.270000457763672,-27.842500686645508,11.34000015258789
8.944404168468694,-0.2371679991483688,-0.8993839621543884,0.4533520042896271,-16.625,-28.315000534057617,7.927500247955322
8.964640376994641,-0.1827559918165207,-0.96697199344635,0.4699440002441406,-11.392499923706056,-28.38500022888184,3.6050000190734863
8.984876585520588,-0.1219999939203262,-0.9598959684371948,0.5028839707374573,-1.5399999618530271,-26.967500686645508,-1.3300000429153442
9.005112794046536,-0.1439599990844726,-0.8932839632034302,0.5109359622001648,1.924999952316284,-22.487499237060547,-3.990000009536743
9.025349002572483,-0.2315559983253479,-0.9086560010910034,0.4509119987487793,-4.340000152587891,-19.565000534057617,-5.284999847412109
9.04558521109843,-0.3045119941234588,-1.014307975769043,0.4023559987545013,-8.557499885559082,-16.625,-3.7100000381469727
9.065821419624378,-0.3760039806365967,-1.1504600048065186,0.3125639855861664,-6.387499809265137,-17.815000534057617,1.5924999713897705
9.086057628150325,-0.3579480051994324,-1.0338280200958252,0.2676680088043213,12.512499809265137,-31.56999969482422,1.0499999523162842
9.106293836676272,-0.2876760065555572,-0.8069080114364624,0.2674239873886108,24.237499237060547,-40.337501525878906,-4.847499847412109
9.12653004520222,-0.334524005651474,-0.9777079820632936,0.2708399891853332,-17.6924991607666,-44.45000076293945,-11.164999961853027
9.146766253728167,-0.2291159927845001,-1.189255952835083,0.2591280043125152,-26.424999237060547,-53.28749847412109,-12.5649995803833
9.167002462254114,-0.0607559978961944,-1.231711983680725,0.1381039917469024,-10.517499923706056,-63.38500213623047,-16.239999771118164
9.187238670780062,-0.0148839997127652,-1.083847999572754,0.0753960013389587,15.085000038146973,-70.19249725341797,-24.07999992370605
9.207474879306009,-0.057583998888731,-0.9257360100746156,0.1966639906167984,17.674999237060547,-77.24500274658203,-26.792499542236328
9.227711087831956,-0.0844239965081214,-0.8930400013923645,0.3147599995136261,-7.157500267028809,-88.19999694824219,-24.850000381469727
9.247947296357903,-0.0431879982352256,-0.9852719902992249,0.3093920052051544,-31.482500076293945,-91.13999938964844,-22.52250099182129
9.26818350488385,0.0263519994914531,-1.0216280221939087,0.2410719990730285,-38.46500015258789,-85.78500366210938,-22.03249931335449
9.288419713409798,0.0875959992408752,-0.9496479630470276,0.1742160022258758,-36.15499877929688,-83.28250122070312,-23.415000915527344
9.308655921935745,0.0756400004029274,-0.8486319780349731,0.1698240041732788,-34.66749954223633,-82.80999755859375,-22.9424991607666
9.328892130461693,0.0375759974122047,-0.7976359724998474,0.2047159969806671,-40.82749938964844,-87.67500305175781,-18.217500686645508
9.34912833898764,0.0456280000507831,-0.7581079602241516,0.224480003118515,-50.400001525878906,-89.19750213623047,-11.9350004196167
9.369364547513587,0.038307998329401,-0.757375955581665,0.1849519908428192,-62.5625,-81.00749969482422,-2.309999942779541
9.389600756039535,0.0412359982728958,-0.8305760025978088,0.1676279902458191,-66.36000061035156,-75.63500213623047,5.985000133514404
9.409836964565482,0.0639280006289482,-0.8776679635047913,0.20032399892807,-57.3125,-71.24250030517578,9.012499809265137
9.43007317309143,0.0832040011882782,-0.9242720007896424,0.2283839881420135,-45.16749954223633,-70.29750061035156,9.484999656677246
9.450309381617377,0.0939399972558021,-0.8947479724884033,0.2108159959316253,-34.352500915527344,-72.67749786376953,11.987500190734863
9.470545590143324,0.1141919940710067,-0.8874279856681824,0.2193560004234314,-32.532501220703125,-79.15250396728516,18.14750099182129
9.490781798669271,0.1173639968037605,-0.8971880078315735,0.2405840009450912,-23.712499618530277,-61.70500183105469,23.957500457763672
9.511018007195219,0.1268799901008606,-0.9057279825210572,0.2430239915847778,-22.9424991607666,-59.622501373291016,31.3075008392334
9.531254215721166,0.1146799996495246,-0.9252479672431946,0.2754760086536407,-27.614999771118164,-56.82250213623047,35.97999954223633
9.551490424247113,0.0895479992032051,-0.9845399856567384,0.2640079855918884,-34.439998626708984,-54.58250045776367,37.06499862670898
9.57172663277306,0.0561200007796287,-1.0613999366760254,0.2513200044631958,-36.33000183105469,-53.182498931884766,32.39250183105469
9.591962841299008,0.0334279984235763,-1.1355760097503662,0.2715719938278198,-35.61249923706055,-56.665000915527344,20.877500534057617
9.612199049824955,0.0561200007796287,-1.1770559549331665,0.2737680077552795,-31.01000022888184,-65.66000366210938,3.7274999618530273
9.632435258350903,0.0375759974122047,-1.2041399478912354,0.2078879922628402,-22.78499984741211,-72.23999786376953,-2.240000009536743
9.65267146687685,0.0080519998446106,-1.2270759344100952,0.1156559959053993,-12.092499732971191,-73.9375,5.215000152587891
9.672907675402797,0.0366000011563301,-1.292955994606018,0.0873520001769065,2.1875,-74.32250213623047,9.904999732971191
9.693143883928744,0.0656360015273094,-1.3793319463729858,0.1173639968037605,17.114999771118164,-75.63500213623047,2.1700000762939453
9.713380092454692,-0.0278159994632005,-1.4164199829101562,0.1927599906921386,29.575000762939453,-76.5625,-15.38249969482422
9.73361630098064,-0.028303999453783,-1.289783954620361,-0.2566879987716675,61.23250198364258,-53.76000213623047,-22.3125
9.753852509506586,-0.023667998611927,-1.1033679246902466,-0.1881240010261535,79.02999877929688,-59.01000213623047,-4.707499980926514
9.774088718032534,-0.0929640009999275,-0.892795979976654,-0.0307439994066953,82.89749908447266,-68.31999969482422,15.78499984741211
9.794324926558481,-0.2898719906806946,-0.7522519826889038,0.2169159948825836,76.09000396728516,-57.66249847412109,30.467500686645508
9.814561135084428,-0.3452599942684173,-0.876691997051239,0.4614039957523346,54.897499084472656,-38.290000915527344,38.77999877929688
9.834797343610376,-0.2320439964532852,-1.0523719787597656,0.4248040020465851,50.837501525878906,-26.967500686645508,35.4900016784668
9.855033552136323,-0.1895879954099655,-1.0377320051193235,0.1983719915151596,66.09750366210938,-17.587499618530273,37.04750061035156
9.87526976066227,-0.100283995270729,-0.8688839673995972,0.1295640021562576,74.55000305175781,-21.89249992370605,39.47999954223633
9.895505969188218,-0.0548999980092048,-0.7576199769973755,0.1715319901704788,59.1150016784668,-23.59000015258789,46.532501220703125
9.915742177714165,-0.0688079968094825,-0.8586359620094299,0.1886119991540908,28.717500686645508,-30.729999542236328,52.76250076293945
9.935978386240112,-0.1276119947433471,-0.8230119943618774,0.2906039953231811,29.75,-29.854999542236328,48.19499969482422
9.95621459476606,-0.1690919995307922,-0.7097960114479065,0.3384279906749725,28.787500381469727,-30.625,43.540000915527344
9.976450803292007,-0.2208199948072433,-0.6424520015716553,0.3381839990615845,17.237499237060547,-26.46000099182129,42.0525016784668
9.996687011817954,-0.234484001994133,-0.6380599737167358,0.2925559878349304,3.202500104904175,-22.102500915527344,44.55500030517578
10.016923220343902,-0.1798280030488968,-0.6741719841957092,0.2893840074539184,-0.9100000262260436,-16.607500076293945,45.63999938964844
10.037159428869849,-0.1437159925699234,-0.6590439677238464,0.3076840043067932,6.300000190734863,-5.09250020980835,44.1875
10.057395637395796,-0.1229759976267814,-0.6534320116043091,0.3596560060977936,2.432500123977661,-7.559999942779541,40.6349983215332
10.077631845921744,-0.1485960036516189,-0.6695359945297241,0.3672199845314026,-7.71750020980835,-12.197500228881836,34.14250183105469
10.09786805444769,-0.1720200031995773,-0.6710000038146973,0.3901560008525848,-15.38249969482422,-14.927499771118164,26.232500076293945
10.118104262973638,-0.1464000046253204,-0.6839320063591003,0.4138239920139313,-21.262500762939453,-11.40999984741211,16.957500457763672
10.138340471499586,-0.1083360016345977,-0.7276079654693604,0.3957679867744446,-22.837499618530277,-6.212500095367432,6.929999828338623
10.158576680025533,-0.109555996954441,-0.8615639805793762,0.4006479978561401,-23.729999542236328,-2.6600000858306885,-2.117500066757202
10.17881288855148,-0.1029679998755455,-1.0557879209518433,0.4355399906635284,-22.0674991607666,4.707499980926514,-9.22249984741211
10.199049097077427,-0.118827998638153,-1.2121919393539429,0.4840959906578064,-13.737500190734863,13.52750015258789,-11.987500190734863
10.219285305603375,-0.1300520002841949,-1.2326879501342771,0.6139039993286133,2.694999933242798,14.297499656677246,-8.942500114440918
10.239521514129322,-0.1800719946622848,-1.0945839881896973,0.6963759660720825,18.427499771118164,17.86750030517578,0.3675000071525574
10.25975772265527,-0.3025600016117096,-0.9406200051307678,0.7183359861373901,25.375,25.40999984741211,7.315000057220459
10.279993931181217,-0.5243560075759888,-1.006500005722046,0.6378160119056702,20.387500762939453,29.487499237060547,5.460000038146973
10.300230139707164,-0.6622160077095032,-1.3461480140686035,0.6390359997749329,20.15999984741211,30.1875,3.762500047683716
10.320466348233111,-0.5809639692306519,-1.5450079441070557,0.6819800138473511,37.275001525878906,13.5625,6.684999942779541
10.340702556759059,-0.4287079870700836,-0.8127639889717102,0.416020005941391,44.15250015258789,-26.38999938964844,15.907500267028809
10.360938765285006,-0.4065040051937103,-0.6204919815063477,0.3291559815406799,26.337499618530277,-9.957500457763672,6.369999885559082
10.381174973810953,-0.4423719942569732,-0.6139039993286133,0.2105719894170761,13.125,-12.074999809265137,-13.037500381469728
10.4014111823369,-0.2718159854412079,-0.8159359693527222,0.0175679996609687,-10.342499732971191,-43.01499938964844,-38.150001525878906
10.421647390862848,-0.1356640011072158,-1.0909240245819092,0.0046359999105334,-20.42250061035156,-49.77000045776367,-24.65749931335449
10.441883599388795,-0.2147199958562851,-1.0731120109558103,-0.002195999957621,-6.177500247955322,-46.79500198364258,-3.4124999046325684
10.462119807914743,-0.3172000050544739,-0.9425719976425172,0.1464000046253204,-0.7524999976158142,-66.25499725341797,-3.5350000858306885
10.48235601644069,-0.1827559918165207,-0.8393599987030029,0.3301320075988769,-5.827499866485596,-80.8324966430664,-16.39750099182129
10.502592224966637,-0.1093119978904724,-0.7683559656143188,0.338916003704071,-13.789999961853027,-73.56999969482422,-24.44750022888184
10.522828433492585,-0.1063839942216873,-0.7820199728012085,0.2525399923324585,-30.852500915527344,-65.44999694824219,-27.107500076293945
10.543064642018532,-0.0546559989452362,-0.835211992263794,0.2296039909124374,-42.122501373291016,-61.21500015258789,-27.877500534057617
10.56330085054448,-0.0187879987061023,-0.9350079894065856,0.2174039930105209,-44.310001373291016,-60.00749969482422,-24.114999771118164
10.583537059070427,0.0039039999246597,-0.8786439895629883,0.2449759989976883,-39.25249862670898,-62.19499969482422,-23.34499931335449
10.603773267596374,0.0544119998812675,-0.8478999733924866,0.2271640002727508,-46.04249954223633,-66.22000122070312,-22.5575008392334
10.624009476122321,0.100283995270729,-0.7612800002098083,0.2322880029678344,-53.98749923706055,-66.02750396728516,-16.957500457763672
10.644245684648268,0.0668559968471527,-0.7978799939155579,0.2437559962272644,-67.2699966430664,-57.34749984741211,-12.460000038146973
10.664481893174216,0.018300000578165,-0.8457039594650269,0.2520520091056824,-64.95999908447266,-49.71749877929688,-10.43000030517578
10.684718101700163,-0.009515999816358,-0.8030039668083191,0.2786479890346527,-55.29999923706055,-44.625,-3.0799999237060547
10.70495431022611,0.0170799996703863,-0.8476560115814209,0.2766959965229034,-53.63750076293945,-42.647499084472656,6.702499866485596
10.725190518752058,0.0749079957604408,-0.7978799939155579,0.2725479900836944,-44.5724983215332,-38.727500915527344,14.927499771118164
10.745426727278005,0.1097999960184097,-0.7612800002098083,0.2493679970502853,-42.10499954223633,-38.08000183105469,27.28249931335449
10.765662935803952,0.0927200019359588,-0.7398079633712769,0.1908079981803894,-45.185001373291016,-42.03499984741211,39.182498931884766
10.7858991443299,0.0905239954590797,-0.8615639805793762,0.1544519960880279,-51.22249984741211,-40.494998931884766,49.50749969482422
10.806135352855847,0.0361119993031024,-1.0301679372787476,0.1495719999074936,-48.89500045776367,-33.494998931884766,55.650001525878906
10.826371561381794,-0.0512399971485137,-1.150704026222229,0.2383880019187927,-33.79249954223633,-23.1875,49.682498931884766
10.846607769907742,-0.110287994146347,-1.2263439893722534,0.3613640069961548,-26.0575008392334,-17.447500228881836,32.689998626708984
10.866843978433689,-0.085156001150608,-1.255136013031006,0.3779560029506683,-28.962499618530277,-23.15250015258789,3.867500066757202
10.887080186959636,0.0407480001449584,-1.1802279949188232,0.3020719885826111,-27.299999237060547,-31.325000762939453,-19.18000030517578
10.907316395485584,0.1134599968791008,-1.2236599922180176,0.1720200031995773,-22.3125,-33.31999969482422,-21.82250022888184
10.927552604011531,0.1134599968791008,-1.3027160167694092,0.1695799976587295,-4.199999809265137,-31.3075008392334,-16.25749969482422
10.947788812537478,0.0795440003275871,-1.5210959911346436,0.23887600004673,21.875,-32.27000045776367,-42.209999084472656
10.968025021063426,0.0710039958357811,-1.4583879709243774,0.0480679981410503,32.84749984741211,-36.61000061035156,-57.18999862670898
10.988261229589373,-0.0148839997127652,-1.18340003490448,-0.3625839948654175,48.58000183105469,-18.6200008392334,-50.33000183105469
11.00849743811532,-0.0651479959487915,-0.8801079988479614,-0.2479040026664734,63.682498931884766,-27.57999992370605,-30.502500534057617
11.028733646641268,-0.0239119995385408,-0.6751480102539062,0.0917439982295036,67.2874984741211,-40.21500015258789,-7.630000114440918
11.048969855167215,-0.0880839973688125,-0.884988009929657,0.2823079824447632,59.9375,-8.942500114440918,7.840000152587891
11.069206063693162,-0.105163998901844,-1.1824239492416382,0.436271995306015,59.83250045776367,24.149999618530277,16.030000686645508
11.08944227221911,-0.0500199981033802,-1.3510279655456543,0.3215920031070709,63.03499984741211,38.51750183105469,12.6875
11.109678480745057,-0.0875959992408752,-1.104099988937378,0.1537199914455413,102.51499938964844,53.30500030517578,5.460000038146973
11.129914689271004,-0.0568519979715347,-0.90475195646286,0.1454239934682846,109.4800033569336,45.272499084472656,3.622499942779541
11.150150897796951,-0.0434319972991943,-0.7524960041046143,0.1049199998378753,87.8499984741211,42.17499923706055,15.27750015258789
11.170387106322899,-0.0251320004463195,-0.6473320126533508,0.1659199893474578,58.65999984741211,41.86000061035156,27.405000686645508
11.190623314848846,-0.0353799983859062,-0.59853196144104,0.3230559825897217,32.584999084472656,44.625,33.65250015258789
11.210859523374793,-0.1629920005798339,-0.7400519847869873,0.3752720057964325,9.327500343322754,45.9900016784668,36.66249847412109
11.23109573190074,-0.2422920018434524,-0.8291119933128357,0.3818599879741668,12.529999732971191,43.92499923706055,30.817501068115234
11.251331940426688,-0.2698639929294586,-0.7959280014038086,0.3437959849834442,27.212499618530277,43.59249877929688,26.9325008392334
11.271568148952635,-0.240339994430542,-0.6944239735603333,0.3101239800453186,32.935001373291016,40.12749862670898,26.4424991607666
11.291804357478583,-0.1725080013275146,-0.5968239903450012,0.3213479816913605,26.372499465942383,35.227500915527344,25.74250030517578
11.31204056600453,-0.1383479982614517,-0.5385079979896545,0.3520919978618622,9.782500267028809,29.78499984741211,21.489999771118164
11.332276774530477,-0.1207799986004829,-0.5765720009803772,0.3396480083465576,-13.072500228881836,20.247499465942383,15.3125
11.352512983056425,-0.1027240008115768,-0.6251279711723328,0.3974759876728058,-26.512500762939453,18.95249938964844,10.220000267028809
11.372749191582372,-0.0944279953837394,-0.6734399795532227,0.4731159806251526,-34.89500045776367,22.52250099182129,3.745000123977661
11.39298540010832,-0.1110199987888336,-0.7524960041046143,0.4826319813728332,-37.6775016784668,23.25749969482422,-3.745000123977661
11.413221608634267,-0.1676279902458191,-0.8891359567642212,0.4309040009975433,-35.682498931884766,21.489999771118164,-9.520000457763672
11.433457817160214,-0.1495719999074936,-1.0633519887924194,0.4543280005455017,-26.880001068115234,22.88999938964844,-13.15999984741211
11.453694025686161,-0.1180959939956665,-1.2597719430923462,0.5204519629478455,-10.517499923706056,25.6200008392334,-13.05500030517578
11.473930234212109,-0.0944279953837394,-1.2485480308532717,0.5514400005340576,11.2524995803833,24.815000534057617,-3.884999990463257
11.494166442738056,-0.0854000002145767,-0.9454999566078186,0.5912119746208191,24.342500686645508,27.020000457763672,6.440000057220459
11.514402651264003,-0.1834879964590072,-0.822767972946167,0.667095959186554,18.6200008392334,36.48749923706055,4.480000019073486
11.53463885978995,-0.2801119983196258,-0.9469639658927916,0.7027199864387512,12.862500190734863,41.38750076293945,-7.210000038146973
11.554875068315898,-0.6370840072631836,-1.5201200246810913,0.416020005941391,11.392499923706056,30.11750030517578,-5.635000228881836
11.575111276841845,-0.7783600091934204,-1.633091926574707,0.2918239831924438,28.174999237060547,5.215000152587891,7.612500190734863
11.595347485367792,-0.6485520005226135,-1.226099967956543,0.205935999751091,52.43000030517578,-28.997499465942383,8.522500038146973
11.61558369389374,-0.3010959923267364,-0.7393199801445007,0.1964199990034103,65.0999984741211,-33.14500045776367,-4.952499866485596
11.635819902419687,-0.0609999969601631,-0.4992239773273468,0.0656360015273094,47.459999084472656,-15.487500190734863,-18.987499237060547
11.656056110945634,-0.0568519979715347,-0.6168320178985596,-0.0224479995667934,20.895000457763672,-9.11750030517578,-24.5
11.676292319471582,-0.1625040024518966,-0.8615639805793762,0.1944679915904998,-9.677499771118164,-23.082500457763672,-23.799999237060547
11.696528527997529,-0.3279359936714172,-1.182911992073059,0.2813319861888885,-44.04750061035156,-51.52000045776367,-19.075000762939453
11.716764736523476,-0.2420479953289032,-1.2636759281158447,0.3318399786949157,-30.78249931335449,-73.5875015258789,-18.462499618530277
11.737000945049424,-0.0917439982295036,-1.0731120109558103,0.350383996963501,5.599999904632568,-68.1449966430664,-25.270000457763672
11.757237153575371,-0.0370879992842674,-0.8742519617080688,0.3196399807929992,13.230000495910645,-61.38999938964844,-29.52250099182129
11.777473362101318,-0.0156159996986389,-0.7093079686164856,0.2952399849891662,-1.837499976158142,-57.837501525878906,-32.51499938964844
11.797709570627266,0.0163480006158351,-0.676367998123169,0.2396079897880554,-28.717500686645508,-63.90999984741211,-31.832500457763672
11.817945779153213,0.0470919981598854,-0.6834439635276794,0.2259439975023269,-50.45249938964844,-64.95999908447266,-23.292499542236328
11.83818198767916,0.0351359993219375,-0.8012959957122803,0.196175992488861,-67.42749786376953,-58.64250183105469,-7.840000152587891
11.858418196205108,0.032940000295639,-0.909875988960266,0.1849519908428192,-66.72750091552734,-55.334999084472656,1.6100000143051147
11.878654404731055,0.0497759990394115,-0.843019962310791,0.2396079897880554,-50.540000915527344,-52.0099983215332,2.327500104904175
11.898890613257002,0.0121999997645616,-0.7705519795417786,0.2601040005683899,-44.72999954223633,-45.84999847412109,7.017499923706055
11.91912682178295,-0.0114679997786879,-0.7893399596214294,0.2442439943552017,-46.25249862670898,-44.817501068115234,15.38249969482422
11.939363030308897,0.0351359993219375,-0.7834839820861816,0.2500999867916107,-43.994998931884766,-44.15250015258789,24.56999969482422
11.959599238834844,0.075883999466896,-0.7742120027542114,0.2398519963026046,-39.970001220703125,-40.12749862670898,37.29249954223633
11.979835447360792,0.0697840005159378,-0.8139839768409729,0.2471719980239868,-36.505001068115234,-36.3650016784668,49.50749969482422
12.000071655886739,0.0285479985177516,-0.9293959736824036,0.3496519923210144,-35.0525016784668,-32.51499938964844,57.400001525878906
12.020307864412686,-0.047580000013113,-1.039440035820007,0.4043079912662506,-28.82250022888184,-31.20249938964844,57.20750045776367
12.040544072938633,-0.0531919971108436,-1.073356032371521,0.326227992773056,-21.875,-36.59249877929688,48.05500030517578
12.06078028146458,-0.0100039998069405,-1.0638400316238403,0.2864559888839721,-21.94499969482422,-40.897499084472656,32.11249923706055
12.081016489990528,0.071492001414299,-1.0657919645309448,0.2396079897880554,-32.39250183105469,-44.6775016784668,14.699999809265137
12.101252698516475,0.1127279996871948,-0.9884439706802368,0.2864559888839721,-30.887500762939453,-41.89500045776367,2.432500123977661
12.121488907042423,0.0634399950504303,-1.010159969329834,0.2810879945755005,-31.114999771118164,-42.875,3.3424999713897705
12.14172511556837,-0.0222040005028247,-1.1470439434051514,0.2259439975023269,-27.28249931335449,-48.247501373291016,6.5625
12.161961324094317,-0.1847079992294311,-1.4671720266342163,0.1483519971370697,-1.3300000429153442,-49.087501525878906,-7.367499828338623
12.182197532620265,-0.2522960007190704,-1.470099925994873,0.2015440016984939,6.84250020980835,-50.557498931884766,-26.19750022888184
12.202433741146212,-0.2039839923381805,-1.4117839336395264,0.0590479969978332,11.427499771118164,-57.032501220703125,-38.97249984741211
12.22266994967216,-0.1542080044746399,-1.1633919477462769,-0.1317600011825561,33.28499984741211,-57.75,-35.279998779296875
12.242906158198107,-0.1415199935436248,-0.9162200093269348,-0.0073199998587369,59.77999877929688,-59.692501068115234,-16.274999618530273
12.263142366724054,-0.1493279933929443,-0.7934879660606384,0.1949559897184372,73.30750274658203,-53.21749877929688,5.96750020980835
12.283378575250001,-0.1934919953346252,-0.7468839883804321,0.3442839980125427,68.21500396728516,-30.012500762939453,26.4424991607666
12.303614783775949,-0.2271640002727508,-0.8722999691963196,0.3867399990558624,36.71500015258789,-11.84749984741211,37.15250015258789
12.323850992301896,-0.2098399996757507,-1.0440759658813477,0.2801119983196258,22.645000457763672,-10.727499961853027,31.377500534057617
12.344087200827843,-0.1964199990034103,-1.034071922302246,0.2381439954042434,37.92250061035156,-16.11750030517578,23.04750061035156
12.36432340935379,-0.1576239913702011,-0.9977160096168518,0.2410719990730285,44.1875,-26.82749938964844,24.27250099182129
12.384559617879738,-0.1415199935436248,-0.8632720112800598,0.2335079908370971,39.79500198364258,-31.7450008392334,33.28499984741211
12.404795826405685,-0.1183400005102157,-0.7446879744529724,0.2784039974212646,24.9375,-36.62749862670898,37.08250045776367
12.425032034931633,-0.1271239966154098,-0.7097960114479065,0.3203719854354858,4.497499942779541,-40.25,36.505001068115234
12.44526824345758,-0.1900759935379028,-0.7595719695091248,0.2962159812450409,-8.4350004196167,-43.73250198364258,33.337501525878906
12.465504451983527,-0.2435119897127151,-0.7937319874763489,0.3015840053558349,-6.720000267028809,-46.182498931884766,29.90749931335449
12.485740660509475,-0.2471719980239868,-0.8161799907684326,0.3364759981632232,-2.5899999141693115,-45.5,28.700000762939453
12.505976869035422,-0.2269199937582016,-0.8359439969062805,0.322079986333847,-0.8224999904632568,-44.1875,29.225000381469727
12.52621307756137,-0.2283839881420135,-0.7964159846305847,0.3101239800453186,-0.8400000333786011,-43.75,29.295000076293945
12.546449286087316,-0.2315559983253479,-0.7715280055999756,0.3606320023536682,-6.947500228881836,-47.407501220703125,27.71999931335449
12.566685494613264,-0.2110600024461746,-0.826915979385376,0.3852759897708893,-13.404999732971191,-51.04750061035156,21.997499465942383
12.586921703139211,-0.147376000881195,-0.8835240006446838,0.3996720016002655,-10.5,-51.5724983215332,13.19499969482422
12.607157911665158,-0.0485559999942779,-0.895967960357666,0.4374919831752777,-3.902499914169312,-52.09749984741211,5.96750020980835
12.627394120191106,-0.0126879997551441,-0.924515962600708,0.4150439798831939,-2.677500009536743,-49.997501373291016,2.117500066757202
12.647630328717053,-0.0688079968094825,-0.918172001838684,0.4055279791355133,-2.799999952316284,-47.845001220703125,0.962499976158142
12.667866537243,-0.1271239966154098,-0.8786439895629883,0.4306599795818329,-2.257499933242798,-49.42000198364258,0.7175000309944153
12.688102745768948,-0.1327359974384308,-0.8752279877662659,0.456523984670639,-3.325000047683716,-52.23749923706055,-0.7175000309944153
12.708338954294895,-0.1105320006608963,-0.9174399971961976,0.4560360014438629,-3.4124999046325684,-53.23500061035156,-3.3600001335144043
12.728575162820842,-0.1134599968791008,-0.965507984161377,0.4836079776287079,-1.0149999856948853,-53.619998931884766,-6.684999942779541
12.74881137134679,-0.2132560014724731,-1.0643279552459717,0.4616479873657226,0.5774999856948853,-53.44499969482422,-8.225000381469727
12.769047579872737,-0.3440400063991546,-1.315891981124878,0.3816159963607788,10.53499984741211,-44.48500061035156,9.274999618530272
12.789283788398684,-0.3906439840793609,-1.0540800094604492,0.2105719894170761,19.512500762939453,-53.54999923706055,18.84749984741211
12.809519996924632,-0.3284240067005157,-0.6951559782028198,0.183243989944458,21.4375,-67.9175033569336,6.877500057220459
12.829756205450579,-0.1280999928712844,-0.667095959186554,0.2496119886636734,-3.0450000762939453,-71.61000061035156,-0.6825000047683716
12.849992413976526,0.0344039984047412,-0.9813680052757264,0.3416000008583069,-20.177499771118164,-61.59999847412109,4.637499809265137
12.870228622502474,-0.0268399994820356,-1.193403959274292,0.2823079824447632,-14.4375,-63.01750183105469,14.50749969482422
12.890464831028421,-0.1703120023012161,-1.189255952835083,0.2000799924135208,-2.240000009536743,-91.36750030517578,18.58500099182129
12.910701039554368,-0.2022759914398193,-1.0816519260406494,0.3286679983139038,6.5625,-108.83250427246094,16.309999465942383
12.930937248080316,-0.1703120023012161,-0.933788001537323,0.4230960011482239,12.407500267028809,-109.375,9.0649995803833
12.951173456606263,-0.1322479993104934,-0.8635159730911255,0.359167993068695,-1.4700000286102295,-110.98500061035156,4.952499866485596
12.97140966513221,-0.0268399994820356,-0.8779119849205017,0.2676680088043213,-19.967500686645508,-113.8375015258789,6.440000057220459
12.991645873658157,0.065880000591278,-0.8547319769859314,0.2091079950332641,-33.057498931884766,-116.35749816894533,17.167499542236328
13.011882082184105,0.0900359973311424,-0.8298439979553223,0.191783994436264,-40.79249954223633,-112.55999755859376,28.420000076293945
13.032118290710052,0.0639280006289482,-0.8432639837265015,0.1986159980297088,-49.087501525878906,-107.83499908447266,34.96500015258789
13.052354499236,0.0578279979526996,-0.8901119828224182,0.2227720022201538,-52.5,-103.49500274658205,36.04999923706055
13.072590707761947,0.056607998907566,-0.9262239933013916,0.2349720001220703,-49.0,-97.93000030517578,35.209999084472656
13.092826916287894,0.0514839999377727,-0.9594079852104188,0.2413159906864166,-39.30500030517578,-94.37750244140624,35.29750061035156
13.113063124813841,0.0732000023126602,-0.8635159730911255,0.257420003414154,-24.412500381469727,-92.24250030517578,35.97999954223633
13.133299333339789,0.0817399993538856,-0.8776679635047913,0.2317999899387359,-24.325000762939453,-88.95249938964844,43.27750015258789
13.153535541865736,0.1185839995741844,-0.8920639753341675,0.2227720022201538,-23.34499931335449,-83.6675033569336,49.647499084472656
13.173771750391683,0.1459119915962219,-0.912559986114502,0.2264319956302642,-20.7549991607666,-74.51499938964844,54.19750213623047
13.19400795891763,0.1076039969921112,-0.9418399930000304,0.2742559909820556,-17.184999465942383,-63.875,56.75249862670898
13.214244167443578,0.0341599993407726,-0.9640439748764038,0.3511160016059875,-15.592499732971191,-57.45249938964844,56.90999984741211
13.234480375969525,0.0717360004782676,-1.013819932937622,0.387715995311737,-19.28499984741211,-58.90499877929688,52.32500076293945
13.254716584495473,0.0461159981787204,-1.0897040367126465,0.3079279959201813,-24.07999992370605,-58.712501525878906,42.78749847412109
13.27495279302142,-0.0187879987061023,-1.0699399709701538,0.2701079845428467,-24.86750030517578,-65.34500122070312,27.33500099182129
13.295189001547367,0.0075639998540282,-1.0218719244003296,0.2274079918861389,-25.200000762939453,-74.98750305175781,14.857500076293944
13.315425210073315,-0.0073199998587369,-0.9735599756240844,0.2296039909124374,-25.165000915527344,-78.87249755859375,11.829999923706056
13.335661418599262,-0.0380639992654323,-0.9267119765281676,0.2854799926280975,-23.012500762939453,-86.41500091552734,13.947500228881836
13.35589762712521,-0.105163998901844,-0.9252479672431946,0.2718159854412079,-21.122499465942383,-96.37249755859376,22.190000534057617
13.376133835651157,-0.2354599982500076,-1.2800239324569702,0.1583559960126876,-9.3100004196167,-103.5124969482422,25.655000686645508
13.396370044177104,-0.1951999962329864,-1.4464319944381714,0.2342399954795837,-5.442500114440918,-98.92749786376952,7.017499923706055
13.416606252703051,-0.0261080004274845,-1.446187973022461,0.1241960003972053,3.237499952316284,-96.66999816894533,-7.490000247955322
13.436842461228999,0.0292799994349479,-1.2622119188308716,-0.1642120033502578,26.46000099182129,-82.75749969482422,-8.697500228881836
13.457078669754946,0.0246439985930919,-1.08189594745636,-0.138835996389389,51.22249984741211,-88.21749877929688,5.442500114440918
13.477314878280893,-0.0697840005159378,-0.9132919907569884,-0.032940000295639,66.43000030517578,-98.41999816894533,26.18000030517578
13.49755108680684,-0.157379999756813,-0.7180919647216797,0.1525000035762787,70.06999969482422,-93.06500244140624,40.26750183105469
13.517787295332788,-0.2915799915790558,-0.6129279732704163,0.3181760013103485,51.782501220703125,-75.26750183105469,45.0625
13.538023503858735,-0.3618519902229309,-0.6531879901885986,0.3769800066947937,22.01499938964844,-60.51499938964844,44.397499084472656
13.558259712384682,-0.3498959839344024,-0.7898280024528503,0.3306199908256531,2.0299999713897705,-57.76750183105469,40.59999847412109
13.57849592091063,-0.2566879987716675,-0.97843998670578,0.2876760065555572,-6.195000171661377,-66.3949966430664,41.66749954223633
13.598732129436577,-0.1256600022315979,-0.9864919781684875,0.2718159854412079,2.9574999809265137,-73.9375,43.557498931884766
13.618968337962524,-0.0846679955720901,-1.0089399814605713,0.2803559899330139,4.059999942779541,-76.24749755859375,48.5099983215332
13.639204546488472,-0.1617719978094101,-1.0052800178527832,0.3684400022029876,3.849999904632568,-76.9124984741211,50.34749984741211
13.659440755014419,-0.2327760010957718,-0.9938119649887084,0.411871999502182,6.002500057220459,-83.19499969482422,44.55500030517578
13.679676963540366,-0.2640079855918884,-0.9054839611053468,0.3869839906692505,14.06999969482422,-88.32250213623047,36.032501220703125
13.699913172066314,-0.2627879977226257,-0.8017839789390564,0.3289119899272918,14.052499771118164,-90.63249969482422,34.38750076293945
13.720149380592261,-0.2474159896373748,-0.7417600154876709,0.3418439924716949,7.71750020980835,-84.80500030517578,39.04249954223633
13.740385589118208,-0.2383880019187927,-0.7319999933242798,0.3669759929180145,3.4649999141693115,-72.88749694824219,42.0
13.760621797644156,-0.2383880019187927,-0.7283399701118469,0.3723439872264862,2.2925000190734863,-67.12999725341797,38.81499862670898
13.780858006170103,-0.2408279925584793,-0.7664039731025696,0.3555079996585846,-3.325000047683716,-73.6050033569336,31.587499618530277
13.80109421469605,-0.2300919890403747,-0.8093479871749878,0.3428199887275696,-8.6274995803833,-83.28250122070312,23.520000457763672
13.821330423221998,-0.2252119928598404,-0.8088600039482117,0.3030479848384857,-8.574999809265137,-90.59750366210938,13.982500076293944
13.841566631747945,-0.20032399892807,-0.798367977142334,0.2764520049095154,-8.119999885559082,-99.26000213623048,3.132499933242798
13.861802840273892,-0.1612839996814727,-0.8783999681472778,0.2962159812450409,-11.515000343322754,-110.87999725341795,-7.175000190734863
13.88203904879984,-0.2325319945812225,-1.079211950302124,0.313539981842041,-11.30500030517578,-116.0250015258789,-11.899999618530272
13.902275257325787,-0.2725479900836944,-1.4422839879989624,0.3825919926166534,-15.417500495910645,-115.5,-0.8400000333786011
13.922511465851734,-0.244731992483139,-1.6143039464950562,0.3093920052051544,-5.442500114440918,-102.1999969482422,29.434999465942383
13.942747674377681,-0.3025600016117096,-1.1092239618301392,0.1154119968414306,28.787500381469727,-107.8874969482422,44.02999877929688
13.962983882903629,-0.2967039942741394,-0.4657959938049316,0.1964199990034103,25.042499542236328,-124.63500213623048,28.38500022888184
13.983220091429576,0.0243999995291233,-1.1546080112457275,0.3376959860324859,-51.20500183105469,-113.08499908447266,20.229999542236328
14.003456299955523,0.0885719954967498,-1.3773800134658811,0.2130119949579239,-19.232500076293945,-101.9375,26.862499237060547
14.02369250848147,0.0339160002768039,-1.3695719242095947,0.0919879972934722,10.447500228881836,-128.94000244140625,27.614999771118164
14.043928717007418,-0.0073199998587369,-1.1631479263305664,0.2091079950332641,29.942501068115234,-145.8800048828125,24.6924991607666
14.064164925533365,-0.0368440002202987,-0.941107988357544,0.3106119930744171,27.614999771118164,-145.14500427246094,18.67250061035156
14.084401134059313,-0.0810080021619796,-0.7842159867286682,0.3181760013103485,11.864999771118164,-140.77000427246094,16.047500610351562
14.10463734258526,-0.1017479971051216,-0.8047119975090027,0.2764520049095154,-9.5024995803833,-139.19500732421875,21.15749931335449
14.124873551111207,-0.0580720007419586,-0.7871440052986145,0.2425359934568405,-18.059999465942383,-140.47250366210938,35.8224983215332
14.145109759637155,-0.0534359999001026,-0.8264279961585999,0.2093520015478134,-26.11000061035156,-138.79249572753906,52.77999877929688
14.165345968163102,-0.0075639998540282,-0.9032880067825316,0.1783639937639236,-28.087499618530277,-138.54750061035156,61.52999877929688
14.18558217668905,0.0805199965834617,-0.954039990901947,0.1839759945869445,-24.604999542236328,-135.92250061035156,61.75749969482422
14.205818385214997,0.1398119926452636,-0.9967399835586548,0.2174039930105209,-19.21500015258789,-129.37750244140625,57.22499847412109
14.226054593740944,0.1320039927959442,-0.990395963191986,0.2459519952535629,-12.61750030517578,-123.35749816894533,51.97499847412109
14.246290802266891,0.0988200008869171,-0.932811975479126,0.2703520059585571,-6.247499942779541,-115.95500183105467,51.92250061035156
14.266527010792839,0.0983319953083992,-0.9076799750328064,0.3071959912776947,-3.255000114440918,-108.98999786376952,55.89500045776367
14.286763219318786,0.0936959981918335,-0.9308599829673768,0.3054879903793335,-1.5049999952316284,-99.9250030517578,61.3025016784668
14.306999427844733,0.0712479948997497,-0.9882000088691713,0.2437559962272644,0.5600000023841858,-90.49250030517578,65.2925033569336
14.32723563637068,-0.0131759997457265,-1.0274839401245115,0.2432679980993271,7.630000114440918,-84.91000366210938,66.34249877929688
14.347471844896628,-0.0697840005159378,-1.007964015007019,0.2471719980239868,9.55500030517578,-83.31749725341797,62.334999084472656
14.367708053422575,0.0073199998587369,-1.0228480100631714,0.2418039888143539,6.824999809265137,-80.20249938964844,54.28499984741211
14.387944261948522,0.002195999957621,-1.047003984451294,0.1327359974384308,9.1875,-67.8125,43.34749984741211
14.40818047047447,0.0736880004405975,-1.0611560344696045,0.0595359988510608,12.25,-60.63750076293945,33.6349983215332
14.428416679000417,0.0100039998069405,-1.0284600257873535,0.095891997218132,15.662500381469728,-55.1775016784668,27.440000534057617
14.448652887526364,-0.1190719977021217,-0.920367956161499,0.2937760055065155,13.15999984741211,-61.14500045776367,23.1875
14.468889096052312,-0.1720200031995773,-0.8940159678459167,0.4096759855747223,0.2800000011920929,-65.60749816894531,21.332500457763672
14.489125304578259,-0.2657159864902496,-0.8993839621543884,0.5153279900550842,-5.40749979019165,-62.10750198364258,18.09499931335449
14.509361513104206,-0.2847479879856109,-0.8747400045394897,0.4004040062427521,-11.130000114440918,-65.01249694824219,16.502500534057617
14.529597721630154,-0.2757200002670288,-0.8249639868736267,0.3762480020523071,-6.195000171661377,-63.595001220703125,23.467500686645508
14.549833930156101,-0.2037400007247924,-0.8225240111351013,0.3440400063991546,-10.605000495910645,-63.192501068115234,35.227500915527344
14.570070138682048,-0.2047159969806671,-0.8088600039482117,0.3552640080451965,-17.53499984741211,-58.53749847412109,43.522499084472656
14.590306347207996,-0.1944679915904998,-0.9372040033340454,0.5192319750785828,-38.83250045776367,-77.57749938964844,32.287498474121094
14.610542555733943,-0.1527439951896667,-0.9376919865608216,0.5385079979896545,-35.209999084472656,-87.11499786376953,20.352500915527344
14.63077876425989,-0.1268799901008606,-0.90938800573349,0.4360280036926269,-30.39750099182129,-84.59500122070312,14.577500343322754
14.651014972785838,-0.1690919995307922,-0.8234999775886536,0.3574599921703338,-26.565000534057617,-75.61750030517578,19.21500015258789
14.671251181311785,-0.1576239913702011,-0.7685999870300293,0.3542879819869995,-30.502500534057617,-72.67749786376953,24.850000381469727
14.691487389837732,-0.1639679968357086,-0.790071964263916,0.3642919957637787,-38.83250045776367,-69.80750274658203,25.899999618530277
14.71172359836368,-0.1493279933929443,-0.8535119891166687,0.3401359915733337,-44.59000015258789,-66.27249908447266,23.012500762939453
14.731959806889627,-0.1678719967603683,-0.8996279835700989,0.2701079845428467,-43.20750045776367,-62.82500076293945,19.354999542236328
14.752196015415574,-0.1788519918918609,-0.9318360090255736,0.253271996974945,-33.31999969482422,-61.407501220703125,16.239999771118164
14.772432223941522,-0.1954440027475357,-0.9562360048294068,0.2791360020637512,-25.217500686645508,-63.84000015258789,13.807499885559082
14.792668432467469,-0.234727993607521,-1.088727951049805,0.2796239852905273,-23.625,-68.94999694824219,10.324999809265137
14.812904640993416,-0.2498559951782226,-1.1746159791946411,0.1954440027475357,-15.329999923706056,-67.375,4.952499866485596
14.833140849519364,-0.2264319956302642,-1.3329719305038452,0.1800719946622848,-9.15250015258789,-65.16999816894531,5.022500038146973
14.85337705804531,-0.1476199924945831,-1.454483985900879,0.2349720001220703,-2.6600000858306885,-62.94750213623047,14.315000534057615
14.873613266571258,-0.1161440014839172,-1.2270759344100952,0.2137439996004104,16.204999923706055,-57.04999923706055,16.975000381469727
14.893849475097205,-0.1576239913702011,-0.9616039991378784,0.2252119928598404,31.43000030517578,-55.790000915527344,7.71750020980835
14.914085683623153,-0.1930039972066879,-0.7232159972190857,0.2332639992237091,30.1875,-62.96500015258789,0.0700000002980232
14.9343218921491,-0.2086199969053268,-0.6688039898872375,0.2371679991483688,9.100000381469728,-70.99749755859375,-1.3300000429153442
14.954558100675047,-0.1849519908428192,-0.7644519805908203,0.2430239915847778,-8.802499771118164,-72.32749938964844,2.922499895095825
14.974794309200995,-0.1293199956417083,-0.8884040117263794,0.2762079834938049,-11.375,-67.8125,8.609999656677246
14.995030517726942,-0.0129319997504353,-0.9884439706802368,0.3111000061035156,-4.007500171661377,-62.650001525878906,12.039999961853027
15.01526672625289,0.0331839993596077,-1.0289479494094849,0.2884079813957214,5.757500171661377,-59.04500198364258,13.142499923706056
15.035502934778837,0.0700279995799064,-1.0094280242919922,0.2737680077552795,10.587499618530272,-61.07500076293945,11.480000495910645
15.055739143304784,0.0695400014519691,-0.9960079789161682,0.2535159885883331,10.045000076293944,-57.13750076293945,8.819999694824219
15.075975351830731,0.0810080021619796,-0.9508680105209352,0.2583959996700287,13.020000457763672,-46.497501373291016,7.227499961853027
15.096211560356679,0.0334279984235763,-0.9252479672431946,0.2798680067062378,13.667500495910645,-29.90749931335449,6.789999961853027
15.116447768882626,-0.0339160002768039,-0.9364719986915588,0.293531984090805,6.965000152587891,-23.11750030517578,4.934999942779541
15.136683977408573,-0.0451399981975555,-0.935983955860138,0.2979239821434021,1.0674999952316284,-23.309999465942383,1.8200000524520876
15.15692018593452,-0.0375759974122047,-0.9408639669418336,0.289139986038208,-0.0175000000745058,-15.487500190734863,-1.0149999856948853
15.177156394460468,-0.0192760005593299,-0.9430599808692932,0.2620559930801391,-1.225000023841858,-5.880000114440918,-2.5199999809265137
15.197392602986415,0.0060999998822808,-0.9611159563064576,0.2137439996004104,-6.737500190734863,3.8324999809265137,-4.8125
15.217628811512363,-0.020983999595046,-0.965507984161377,0.1905639916658401,-9.712499618530272,10.02750015258789,-6.177500247955322
15.23786502003831,-0.0400159992277622,-0.9789279699325562,0.2071560025215149,-12.337499618530272,12.739999771118164,-9.204999923706056
15.258101228564257,-0.0412359982728958,-0.9847840070724488,0.2422920018434524,-13.15999984741211,14.90999984741211,-13.387499809265137
15.278337437090205,-0.028303999453783,-0.9977160096168518,0.2308239936828613,-14.017499923706056,16.239999771118164,-17.674999237060547
15.298573645616152,-0.0121999997645616,-0.9935680031776428,0.2259439975023269,-14.157500267028809,18.8125,-21.15749931335449
15.3188098541421,-0.0046359999105334,-0.9747799634933472,0.2105719894170761,-14.9975004196167,21.174999237060547,-23.362499237060547
15.339046062668046,0.0151279997080564,-0.9635559916496276,0.2152079939842224,-15.907500267028809,23.83500099182129,-25.165000915527344
15.359282271193994,0.0636840015649795,-0.9537959694862366,0.2278959900140762,-15.34749984741211,26.075000762939453,-25.88249969482422
15.379518479719941,0.0832040011882782,-0.9508680105209352,0.2381439954042434,-14.03499984741211,28.927499771118164,-23.975000381469727
15.399754688245888,0.0697840005159378,-0.94159597158432,0.2164279967546463,-13.19499969482422,29.977500915527344,-21.262500762939453
15.419990896771836,0.0531919971108436,-0.9855159521102904,0.2064239978790283,-14.40250015258789,29.61000061035156,-18.23500061035156
15.440227105297783,0.0175679996609687,-1.0389519929885864,0.2181359976530075,-13.545000076293944,30.55500030517578,-17.13249969482422
15.46046331382373,-0.0153719997033476,-1.0677440166473389,0.249123990535736,-9.65999984741211,29.45249938964844,-19.6875
15.480699522349678,-0.0109799997881054,-1.0128439664840698,0.269131988286972,-3.622499942779541,26.477500915527344,-24.325000762939453
15.500935730875625,0.0151279997080564,-0.9869799613952636,0.2762079834938049,-2.555000066757202,24.762500762939453,-27.19499969482422
15.521171939401572,0.0556319989264011,-0.972827970981598,0.2476599961519241,-4.182499885559082,23.34499931335449,-26.372499465942383
15.54140814792752,0.0656360015273094,-0.962336003780365,0.2176479995250702,-6.002500057220459,21.4375,-22.96000099182129
15.561644356453467,0.0400159992277622,-0.949891984462738,0.2142319977283477,-7.454999923706055,19.65250015258789,-18.40999984741211
15.581880564979414,0.0248879995197057,-0.9464759826660156,0.236191987991333,-8.977499961853027,16.344999313354492,-15.609999656677246
15.602116773505362,0.0295239984989166,-0.9620919823646544,0.2298479974269867,-9.572500228881836,11.74250030517578,-14.857500076293944
15.622352982031309,0.0602679997682571,-0.9677039980888368,0.2354599982500076,-8.680000305175781,9.239999771118164,-13.52750015258789
15.642589190557256,0.0846679955720901,-0.9740479588508606,0.2330199927091598,-6.527500152587891,13.19499969482422,-11.0600004196167
15.662825399083204,0.0588039979338645,-0.9730719923973083,0.2474159896373748,-2.4674999713897705,16.327499389648438,-9.975000381469728
15.683061607609151,0.009515999816358,-0.9520879983901978,0.2913359999656677,0.332500010728836,15.24250030517578,-10.167500495910645
15.703297816135098,-0.0351359993219375,-0.9503799676895142,0.3394039869308471,-1.8025000095367432,12.3725004196167,-10.010000228881836
15.723534024661046,-0.0427000001072883,-1.0104039907455444,0.3252519965171814,-4.252500057220459,7.769999980926514,-11.6899995803833
15.743770233186993,-0.0207399986684322,-1.0289479494094849,0.257420003414154,4.182499885559082,3.5174999237060547,-11.899999618530272
15.76400644171294,-0.0114679997786879,-0.9735599756240844,0.2754760086536407,14.262499809265137,-1.8550000190734863,-7.157500267028809
15.784242650238888,-0.0200079996138811,-0.9079239964485168,0.3128080070018768,19.19750022888184,-9.012499809265137,-0.5249999761581421
15.804478858764835,0.0854000002145767,-0.8991400003433228,0.2464399933815002,8.539999961853027,-18.252500534057617,6.684999942779541
15.824715067290782,0.1420079916715622,-0.9289079904556274,0.1800719946622848,-1.3650000095367432,-19.600000381469727,6.755000114440918
15.84495127581673,0.171775996685028,-0.9584319591522216,0.1656759977340698,-8.907500267028809,-19.145000457763672,3.674999952316284
15.865187484342677,0.2125239968299865,-1.0016199350357056,0.1839759945869445,-14.332500457763672,-18.707500457763672,-6.335000038146973
15.885423692868624,0.1793399900197982,-1.0355359315872192,0.2105719894170761,-10.9375,-11.795000076293944,-1.8025000095367432
15.905659901394571,0.1073599979281425,-1.0311440229415894,0.23887600004673,-6.615000247955322,-5.6875,-0.262499988079071
15.925896109920519,0.0661239996552467,-1.020651936531067,0.2483920007944107,-3.8324999809265137,-2.2049999237060547,-5.617499828338623
15.946132318446466,0.0788119956851005,-0.987223982810974,0.2342399954795837,-0.3675000071525574,3.4124999046325684,-8.767499923706055
15.966368526972413,0.0536799989640712,-0.9528200030326844,0.2235039919614792,2.414999961853028,6.264999866485596,-0.2275000065565109
15.98660473549836,0.0485559999942779,-0.93232399225235,0.236191987991333,3.569999933242798,8.050000190734863,3.7100000381469727
16.006840944024308,0.0502640008926391,-0.9755119681358336,0.2461960017681121,0.1400000005960464,7.735000133514404,5.582499980926514
16.027077152550255,0.0224479995667934,-0.9943000078201294,0.2134999930858612,-2.5374999046325684,6.982500076293945,6.615000247955322
16.047313361076203,0.0119559997692704,-0.977952003479004,0.2044719904661178,-2.1875,3.202500104904175,6.737500190734863
16.06754956960215,0.0009759999811649,-0.9474520087242126,0.2191119939088821,0.0874999985098838,-0.699999988079071,6.929999828338623
16.087785778128097,0.0168359987437725,-0.9555040001869202,0.2439999878406524,0.6650000214576721,-4.007500171661377,7.157500267028809
16.108021986654045,0.0331839993596077,-0.9862479567527772,0.2359479963779449,-1.277500033378601,-6.212500095367432,8.417500495910645
16.128258195179992,0.0558759979903698,-1.0296800136566162,0.2088640034198761,-3.622499942779541,-9.11750030517578,9.029999732971191
16.14849440370594,0.0653920024633407,-1.022603988647461,0.1883679926395416,-1.5399999618530271,-12.337499618530272,7.787499904632568
16.168730612231887,0.052216000854969,-0.9884439706802368,0.1934919953346252,1.995000004768372,-16.3799991607666,6.230000019073486
16.188966820757834,0.0507519990205764,-0.9598959684371948,0.2381439954042434,3.377500057220459,-19.092500686645508,5.582499980926514
16.20920302928378,0.0405040010809898,-0.9652639627456664,0.2679120004177093,2.6424999237060547,-20.52750015258789,6.492499828338623
16.22943923780973,0.0363559983670711,-1.0043039321899414,0.2271640002727508,-1.347499966621399,-20.002500534057617,10.079999923706056
16.249675446335676,0.0563639998435974,-0.981123983860016,0.1795839965343475,-1.4524999856948853,-19.0575008392334,14.0
16.269911654861623,0.057583998888731,-0.9232959747314452,0.181779995560646,4.602499961853027,-20.09000015258789,16.607500076293945
16.29014786338757,0.0378200002014637,-0.8891359567642212,0.2195999920368194,6.579999923706055,-21.174999237060547,18.270000457763672
16.310384071913518,0.0390399992465972,-0.9420839548110962,0.2452199906110763,0.4375,-20.19499969482422,19.84499931335449
16.330620280439465,0.0568519979715347,-1.0155279636383057,0.177387997508049,-4.199999809265137,-18.637500762939453,20.86000061035156
16.350856488965412,0.0539239980280399,-1.030900001525879,0.1376159936189651,-0.8224999904632568,-19.530000686645508,21.6299991607666
16.37109269749136,0.0344039984047412,-1.0252879858016968,0.1500599980354309,1.6100000143051147,-22.69750022888184,21.665000915527344
16.391328906017307,0.0927200019359588,-1.0145519971847534,0.2086199969053268,4.952499866485596,-21.927499771118164,19.145000457763672
16.411565114543254,0.1412760019302368,-1.0169919729232788,0.1932480037212371,3.7799999713897705,-18.32250022888184,14.5600004196167
16.4318013230692,0.1117519959807396,-0.9979599714279176,0.2325319945812225,0.9975000023841858,-18.95249938964844,16.065000534057617
16.45203753159515,0.0722239986062049,-0.9694119691848756,0.2542479932308197,4.637499809265137,-17.832500457763672,19.512500762939453
16.472273740121096,0.0470919981598854,-0.891819953918457,0.2857239842414856,12.6875,-16.957500457763672,23.957500457763672
16.492509948647044,0.0675880014896392,-0.856440007686615,0.2598600089550018,11.2524995803833,-12.337499618530272,28.979999542236328
16.51274615717299,0.0839359983801841,-0.8823039531707764,0.2115480005741119,8.837499618530273,-5.162499904632568,37.625
16.53298236569894,0.0124439997598528,-1.0111359357833862,0.1829999983310699,11.112500190734863,0.5074999928474426,44.25749969482422
16.553218574224886,-0.0653920024633407,-1.1292319297790527,0.260591983795166,17.395000457763672,1.6974999904632568,41.29999923706055
16.573454782750833,-0.0919879972934722,-1.201211929321289,0.3013399839401245,18.67250061035156,-2.012500047683716,27.002500534057617
16.59369099127678,-0.1090679988265037,-1.120203971862793,0.3089039921760559,22.9424991607666,-5.460000038146973,9.572500228881836
16.613927199802728,-0.1029679998755455,-0.981123983860016,0.2644959986209869,24.56999969482422,-12.145000457763672,1.1375000476837158
16.634163408328675,-0.1217559948563575,-0.8561959862709045,0.2252119928598404,25.200000762939453,-17.114999771118164,4.96999979019165
16.654399616854622,-0.1510359942913055,-0.8088600039482117,0.2571759819984436,19.092500686645508,-23.292499542236328,15.78499984741211
16.67463582538057,-0.1964199990034103,-0.8503400087356567,0.3223240077495575,10.832500457763672,-20.71999931335449,23.8700008392334
16.694872033906517,-0.2281399965286255,-0.9401319622993468,0.3403799831867218,2.9049999713897705,-18.655000686645508,25.58500099182129
16.715108242432464,-0.1932480037212371,-0.9864919781684875,0.3430639803409576,3.115000009536743,-20.457500457763672,21.174999237060547
16.73534445095841,-0.1647000014781952,-0.9977160096168518,0.3233000040054321,3.884999990463257,-21.45499992370605,16.467500686645508
16.75558065948436,-0.1166319996118545,-0.9713639616966248,0.3047559857368469,5.25,-22.645000457763672,12.862500190734863
16.775816868010306,-0.0761279985308647,-0.93012797832489,0.2952399849891662,5.477499961853027,-22.5575008392334,11.147500038146973
16.796053076536253,-0.0797879993915557,-0.9271999597549438,0.2993879914283752,3.009999990463257,-19.63500022888184,12.197500228881836
16.8162892850622,-0.1146799996495246,-0.933788001537323,0.3276920020580292,0.3675000071525574,-14.927499771118164,14.40250015258789
16.836525493588148,-0.1566479951143264,-0.9398880004882812,0.3435519933700561,-1.5225000381469729,-10.710000038146973,15.8725004196167
16.856761702114095,-0.185928001999855,-0.9274439811706544,0.3425759971141815,-0.4724999964237213,-7.595000267028809,15.295000076293944
16.876997910640043,-0.1886119991540908,-0.9076799750328064,0.3298879861831665,1.9075000286102293,-5.6875,13.579999923706056
16.89723411916599,-0.1827559918165207,-0.8981639742851257,0.3079279959201813,2.9574999809265137,-3.920000076293945,11.9350004196167
16.917470327691937,-0.1622599959373474,-0.891819953918457,0.2947520017623901,2.712500095367432,-3.3949999809265137,10.412500381469728
16.937706536217885,-0.1393239945173263,-0.9071919918060304,0.297679990530014,1.680000066757202,-2.414999961853028,8.960000038146973
16.957942744743832,-0.1483519971370697,-0.9437919855117798,0.3154920041561126,0.699999988079071,-2.1875,6.107500076293945
16.97817895326978,-0.1771439909934997,-0.958187997341156,0.3511160016059875,2.257499933242798,-4.130000114440918,1.7675000429153442
16.998415161795727,-0.201787993311882,-0.9598959684371948,0.3581919968128204,4.637499809265137,-6.300000190734863,-1.924999952316284
17.018651370321674,-0.1844639927148819,-0.9313479661941528,0.3567279875278473,9.3100004196167,-5.477499961853027,-3.692500114440918
17.03888757884762,-0.1622599959373474,-0.9110959768295288,0.3525799810886383,9.625,-3.692500114440918,-3.325000047683716
17.05912378737357,-0.1586000025272369,-0.8962119817733765,0.3586799800395965,8.837499618530273,-2.6075000762939453,-2.870000123977661
17.079359995899516,-0.1495719999074936,-0.884988009929657,0.3672199845314026,7.612500190734863,-1.9774999618530276,-2.572499990463257
17.099596204425463,-0.1385920047760009,-0.8813279867172241,0.3598999977111816,6.492499828338623,-0.6474999785423279,-3.237499952316284
17.11983241295141,-0.1254159957170486,-0.8625400066375732,0.3369639813899994,4.829999923706055,0.9100000262260436,-5.284999847412109
17.140068621477358,-0.1132159978151321,-0.8508279919624329,0.3196399807929992,-0.0525000020861625,2.345000028610229,-8.1899995803833
17.160304830003305,-0.1293199956417083,-0.8676639795303345,0.3096359968185425,-7.454999923706055,3.640000104904175,-9.922499656677246
17.180541038529253,-0.1617719978094101,-0.8937720060348511,0.3123199939727783,-12.739999771118164,2.6075000762939453,-10.920000076293944
17.2007772470552,-0.1756799966096878,-0.9206119775772096,0.3340359926223755,-15.225000381469728,0.4200000166893005,-11.532500267028809
17.221013455581147,-0.1866599917411804,-0.944767951965332,0.3494080007076263,-15.4350004196167,-0.1050000041723251,-12.582500457763672
17.241249664107094,-0.1549399942159652,-0.9894199967384338,0.3418439924716949,-16.082500457763672,-2.852499961853028,-13.072500228881836
17.261485872633042,-0.1407880038022995,-1.017967939376831,0.3172000050544739,-13.59749984741211,-4.409999847412109,-12.31999969482422
17.28172208115899,-0.1586000025272369,-1.052616000175476,0.3150039911270141,-11.077500343322754,-6.947500228881836,-11.164999961853027
17.301958289684936,-0.1637239903211593,-1.0616439580917358,0.2962159812450409,-5.670000076293945,-9.65999984741211,-11.34000015258789
17.322194498210884,-0.1405439972877502,-0.9984479546546936,0.2996319830417633,2.852499961853028,-10.324999809265137,-11.9350004196167
17.34243070673683,-0.100283995270729,-0.9418399930000304,0.2986559867858886,6.422500133514404,-8.364999771118164,-12.897500038146973
17.36266691526278,-0.0895479992032051,-0.9088999629020692,0.264739990234375,4.707499980926514,-5.110000133514404,-14.0
17.382903123788726,-0.085887998342514,-0.8954799771308899,0.2420479953289032,0.7524999976158142,-3.307500123977661,-14.84000015258789
17.403139332314673,-0.0836919993162155,-0.9169519543647766,0.2466839998960495,-2.712500095367432,-3.289999961853028,-15.71500015258789
17.42337554084062,-0.085156001150608,-0.9454999566078186,0.2610799968242645,-4.392499923706055,-5.494999885559082,-16.852500915527344
17.443611749366568,-0.0734440013766288,-0.9850279688835144,0.2586399912834167,-3.5,-6.474999904632568,-18.217500686645508
17.463847957892515,-0.0570959970355033,-1.0052800178527832,0.2483920007944107,-0.1400000005960464,-5.880000114440918,-18.479999542236328
17.484084166418462,-0.0512399971485137,-0.9894199967384338,0.2427799999713897,3.377500057220459,-4.550000190734863,-17.920000076293945
17.50432037494441,-0.0385520011186599,-0.9667279720306396,0.2471719980239868,4.007500171661377,-3.6575000286102295,-16.957500457763672
17.524556583470357,-0.0446520000696182,-0.9528200030326844,0.2430239915847778,2.1700000762939453,-4.357500076293945,-16.22249984741211
17.544792791996304,-0.0563639998435974,-0.9794159531593324,0.2413159906864166,-1.4350000619888306,-7.192500114440918,-16.012500762939453
17.56502900052225,-0.0339160002768039,-0.977463960647583,0.2552239894866943,-1.5750000476837158,-8.6274995803833,-17.517499923706055
17.5852652090482,-0.0121999997645616,-0.9777079820632936,0.2666919827461242,-1.627500057220459,-6.947500228881836,-19.600000381469727
17.605501417574146,0.046604000031948,-0.993079960346222,0.2915799915790558,-1.8025000095367432,-4.199999809265137,-21.227500915527344
17.625737626100094,0.0863759964704513,-0.973315954208374,0.2788919806480407,-1.399999976158142,-1.4350000619888306,-18.32250022888184
17.64597383462604,0.0653920024633407,-0.933788001537323,0.3052439987659454,-1.6100000143051147,-2.6424999237060547,-15.890000343322754
17.666210043151988,0.0487999990582466,-0.9608719944953918,0.3228119909763336,-5.039999961853027,-5.740000247955322,-13.282500267028809
17.686446251677935,0.0717360004782676,-0.9738039970397948,0.3269599974155426,-5.425000190734863,-8.032500267028809,-13.579999923706056
17.706682460203883,0.1019919961690902,-1.0069879293441772,0.3010959923267364,-6.054999828338623,-7.857500076293945,-15.452500343322754
17.72691866872983,0.1229759976267814,-0.9840520024299622,0.2791360020637512,-3.640000104904175,-4.882500171661377,-17.010000228881836
17.747154877255777,0.1276119947433471,-0.9474520087242126,0.2671799957752228,-2.870000123977661,-2.3975000381469727,-15.697500228881836
17.767391085781725,0.1139479950070381,-0.9191479682922364,0.2596159875392914,-3.1675000190734863,-3.132499933242798,-14.052499771118164
17.787627294307672,0.1007720008492469,-0.9120720028877258,0.2620559930801391,-6.230000019073486,-4.917500019073486,-11.392499923706056
17.80786350283362,0.1019919961690902,-0.9398880004882812,0.2701079845428467,-8.907500267028809,-4.585000038146973,-9.922499656677246
17.828099711359567,0.1032119989395141,-0.9667279720306396,0.2718159854412079,-7.349999904632568,-2.0824999809265137,-9.029999732971191
17.848335919885514,0.1088239997625351,-0.9850279688835144,0.2540040016174316,-3.0450000762939453,-1.9424999952316284,-8.260000228881836
17.86857212841146,0.1124840006232261,-0.9628239870071412,0.2662039995193481,2.012500047683716,-0.2800000011920929,-7.139999866485596
17.88880833693741,0.0961359962821006,-0.9423279762268066,0.2757200002670288,2.765000104904175,3.0799999237060547,-5.809999942779541
17.909044545463356,0.0710039958357811,-0.9428159594535828,0.293287992477417,0.5074999928474426,3.289999961853028,-4.742499828338623
17.929280753989303,0.0446520000696182,-0.9601399898529052,0.313539981842041,-1.4350000619888306,3.552500009536743,-4.147500038146973
17.94951696251525,0.0158599987626075,-0.969655990600586,0.3115879893302917,-0.9275000095367432,3.3600001335144043,-3.6575000286102295
17.969753171041198,0.0158599987626075,-0.95306396484375,0.2959719896316528,-0.5425000190734863,1.2424999475479126,-3.115000009536743
17.989989379567145,0.0395279973745346,-0.94159597158432,0.2825520038604736,-2.117500066757202,0.7524999976158142,-2.712500095367432
18.010225588093093,0.0507519990205764,-0.9689239859580994,0.2681559920310974,-3.8324999809265137,1.0674999952316284,-1.784999966621399
18.03046179661904,0.0439199991524219,-0.9794159531593324,0.2640079855918884,-1.627500057220459,-1.0325000286102295,-1.4175000190734863
18.050698005144987,0.0312319993972778,-0.9772199988365172,0.2781600058078766,0.8224999904632568,-5.704999923706055,-1.1200000047683716
18.070934213670935,0.0151279997080564,-0.9828319549560548,0.2835280001163482,2.2225000858306885,-11.2524995803833,0.0525000020861625
18.091170422196882,0.0092719998210668,-0.9633119702339172,0.27742800116539,4.585000038146973,-17.237499237060547,1.784999966621399
18.11140663072283,0.0190319996327161,-0.924027979373932,0.2801119983196258,5.775000095367432,-22.417499542236328,4.987500190734863
18.131642839248777,0.047335997223854,-0.9259799718856812,0.2715719938278198,4.304999828338623,-26.232500076293945,9.607500076293944
18.151879047774724,0.0971119999885559,-0.9518439769744872,0.2503440082073211,2.6600000858306885,-29.295000076293945,12.635000228881836
18.17211525630067,0.1534759998321533,-0.9606279730796814,0.2449759989976883,3.884999990463257,-28.052499771118164,14.175000190734863
18.19235146482662,0.152988001704216,-0.9611159563064576,0.2681559920310974,4.865000247955322,-23.99250030517578,14.962499618530272
18.212587673352566,0.1202920004725456,-0.9608719944953918,0.268887996673584,1.9774999618530276,-22.34749984741211,14.90999984741211
18.232823881878513,0.1383479982614517,-0.9635559916496276,0.2708399891853332,-0.4550000131130218,-17.219999313354492,12.739999771118164
18.25306009040446,0.157379999756813,-0.9786840081214904,0.2554679811000824,0.4550000131130218,-8.960000038146973,11.130000114440918
18.273296298930408,0.1373720020055771,-0.9686799645423888,0.2493679970502853,0.8400000333786011,-0.9800000190734864,9.782500267028809
18.293532507456355,0.0883279964327812,-0.9681919813156128,0.2613239884376526,-0.8924999833106995,2.047499895095825,8.27750015258789
18.313768715982302,0.0434319972991943,-0.9835639595985411,0.2759639918804168,-3.220000028610229,1.924999952316284,6.195000171661377
18.33400492450825,0.0219599995762109,-0.9889319539070128,0.2886520028114319,-2.677500009536743,1.9075000286102293,3.6050000190734863
18.354241133034197,0.0300120003521442,-0.9718520045280457,0.30621999502182,0.1225000023841857,2.240000009536743,2.275000095367432
18.374477341560144,0.0424560010433197,-0.9476959705352784,0.3015840053558349,2.065000057220459,0.2800000011920929,3.009999990463257
