Time (seconds),acc_x,acc_y,acc_z,gyro_x,gyro_y,gyro_z
0.0202975247040407,0.1656759977340698,-0.9974719882011414,0.0070759998634457,-0.2275000065565109,25.00749969482422,-0.5074999928474426
0.0405950494080814,0.1683599948883056,-0.9962520003318788,0.0090279998257756,0.5950000286102295,25.375,0.1400000005960464
0.06089257411212211,0.1695799976587295,-0.9943000078201294,0.0129319997504353,1.3125,25.707500457763672,0.9100000262260436
0.0811900988161628,0.1729959994554519,-0.9962520003318788,0.0178119987249374,1.662500023841858,26.31999969482422,1.3825000524520874
0.1014876235202035,0.1783639937639236,-0.9969840049743652,0.0178119987249374,2.345000028610229,27.49250030517578,1.4874999523162842
0.1217851482242442,0.1905639916658401,-1.001863956451416,0.0180559996515512,3.150000095367432,28.21000099182129,1.2949999570846558
0.14208267292828491,0.1995919942855835,-1.0050359964370728,0.0200079996138811,4.65500020980835,29.399999618530277,0.8924999833106995
0.1623801976323256,0.2034959942102432,-1.0011320114135742,0.0146399997174739,6.597499847412109,30.450000762939453,0.6650000214576721
0.1826777223363663,0.2220399975776672,-0.9801479578018188,0.0256199985742568,9.572500228881836,33.040000915527344,1.6974999904632568
0.202975247040407,0.2254559993743896,-0.9633119702339172,0.0270840004086494,11.199999809265137,35.0525016784668,2.887500047683716
0.2232727717444477,0.224723994731903,-0.9508680105209352,0.0295239984989166,12.1274995803833,35.962501525878906,4.269999980926514
0.2435702964484884,0.2232600003480911,-0.9533079862594604,0.0351359993219375,11.77750015258789,37.310001373291016,6.107500076293945
0.2638678211525291,0.2225279957056045,-0.9603840112686156,0.0361119993031024,12.302499771118164,38.692501068115234,7.577499866485596
0.28416534585656983,0.218868002295494,-0.965507984161377,0.038307998329401,13.212499618530272,40.372501373291016,8.364999771118164
0.30446287056061055,0.2222839891910553,-0.9735599756240844,0.037331998348236,13.59749984741211,40.65250015258789,9.292500495910645
0.3247603952646513,0.2308239936828613,-0.981611967086792,0.037331998348236,14.1225004196167,41.29999923706055,9.9399995803833
0.345057919968692,0.2237479984760284,-0.9913719892501832,0.0448959991335868,14.279999732971191,42.47249984741211,10.1850004196167
0.36535544467273273,0.2069119960069656,-0.9960079789161682,0.047580000013113,14.770000457763672,43.24250030517578,9.800000190734863
0.38565296937677346,0.1908079981803894,-1.006500005722046,0.0458719991147518,15.24250030517578,43.942501068115234,8.75
0.4059504940808142,0.1690919995307922,-1.019919991493225,0.0422119982540607,15.067500114440918,43.13750076293945,6.982500076293945
0.4262480187848549,0.1451800018548965,-1.0348039865493774,0.0588039979338645,13.037500381469728,40.95000076293945,3.0625
0.44654554348889564,0.1324919909238815,-1.0430999994277954,0.0756400004029274,10.727499961853027,36.084999084472656,-2.940000057220459
0.46684306819293636,0.1210239976644516,-1.032364010810852,0.0893040001392364,10.6225004196167,31.56999969482422,-9.520000457763672
0.4871405928969771,0.1241960003972053,-0.9950319528579712,0.104432001709938,12.074999809265137,27.912500381469727,-14.227499961853027
0.5074381176010178,0.1595759987831115,-0.962336003780365,0.0854000002145767,13.755000114440918,24.674999237060547,-16.362499237060547
0.5277356423050584,0.1722639948129654,-0.9306159615516664,0.0936959981918335,15.154999732971191,27.57999992370605,-17.90250015258789
0.5480331670090991,0.1405439972877502,-0.8979200124740601,0.1266359984874725,15.837499618530272,30.450000762939453,-17.989999771118164
0.5683306917131398,0.1359079927206039,-0.8762039542198181,0.1634799987077713,14.962499618530272,28.979999542236328,-15.942500114440918
0.5886282164171804,0.1478639990091323,-0.8842560052871704,0.1622599959373474,12.65250015258789,29.837499618530277,-14.087499618530272
0.6089257411212211,0.1107759997248649,-0.9257360100746156,0.1461559981107711,9.887499809265137,38.97249984741211,-11.6899995803833
0.6292232658252618,0.0988200008869171,-0.945743978023529,0.1290760040283203,7.507500171661377,45.77999877929688,-6.387499809265137
0.6495207905293024,0.0788119956851005,-0.9662399888038636,0.1268799901008606,0.9100000262260436,54.845001220703125,2.0999999046325684
0.6698183152333431,0.0363559983670711,-1.012112021446228,0.114436000585556,-7.682499885559082,62.07250213623047,7.997499942779541
0.6901158399373838,0.0143959997221827,-1.0582280158996582,0.124439999461174,-14.787500381469728,65.01249694824219,6.84250020980835
0.7104133646414245,0.0685639977455139,-1.1958439350128174,0.1427399963140487,-18.67250061035156,68.63500213623047,1.8725000619888303
0.7307108893454651,0.0385520011186599,-1.2975919246673584,0.2093520015478134,-5.949999809265137,77.48999786376953,-3.447499990463257
0.7510084140495058,-0.0544119998812675,-1.2151199579238892,0.2283839881420135,11.637499809265137,80.32499694824219,-3.3600001335144043
0.7713059387535465,-0.1146799996495246,-1.1121519804000854,0.2081319987773895,14.90999984741211,82.73999786376953,3.377500057220459
0.7916034634575871,-0.1119959950447082,-0.9367159605026244,0.2093520015478134,21.927499771118164,75.63500213623047,6.860000133514404
0.8119009881616278,-0.0875959992408752,-0.8740079998970032,0.206179991364479,23.502500534057617,73.86750030517578,6.457499980926514
0.8321985128656685,-0.0387960001826286,-0.8322839736938477,0.1854400038719177,20.8075008392334,72.625,5.512499809265137
0.8524960375697092,0.0309880003333091,-0.806663990020752,0.1686040014028549,16.22249984741211,73.09750366210938,2.8350000381469727
0.8727935622737498,0.0548999980092048,-0.8264279961585999,0.1647000014781952,11.585000038146973,75.11000061035156,-2.6424999237060547
0.8930910869777905,0.0753960013389587,-0.8774240016937256,0.1988599896430969,7.857500076293945,64.95999908447266,-8.942500114440918
0.9133886116818312,0.0849120020866394,-0.9345200061798096,0.2357039898633957,6.982500076293945,64.12000274658203,-15.470000267028809
0.9336861363858718,0.0824719965457916,-0.9957639575004578,0.2227720022201538,6.457499980926514,68.00499725341797,-19.739999771118164
0.9539836610899125,0.0600240007042884,-1.0369999408721924,0.224723994731903,5.985000133514404,71.52249908447266,-21.665000915527344
0.9742811857939532,0.0251320004463195,-1.0535919666290283,0.240339994430542,5.337500095367432,74.58499908447266,-21.59499931335449
0.9945787104979938,0.0048799999058246,-1.0528600215911863,0.2703520059585571,7.507500171661377,75.80999755859375,-18.899999618530277
1.0148762352020346,0.0117119997739791,-1.0460280179977417,0.2954840064048767,11.917500495910645,75.73999786376953,-17.079999923706055
1.0351737599060753,0.0341599993407726,-1.0255320072174072,0.2884079813957214,17.797500610351562,75.51249694824219,-16.1875
1.055471284610116,0.0483120009303092,-0.9584319591522216,0.2662039995193481,20.63249969482422,77.03500366210938,-16.83500099182129
1.0757688093141566,0.0451399981975555,-0.9059720039367676,0.23887600004673,17.727500915527344,78.06749725341797,-17.71000099182129
1.0960663340181973,0.0427000001072883,-0.8786439895629883,0.2359479963779449,10.46500015258789,79.41500091552734,-18.112499237060547
1.116363858722238,0.0312319993972778,-0.8813279867172241,0.2459519952535629,2.134999990463257,80.8499984741211,-18.07749938964844
1.1366613834262786,0.0117119997739791,-0.9054839611053468,0.2652280032634735,-2.5899999141693115,81.55000305175781,-18.357500076293945
1.1569589081303193,0.0002439999952912,-0.9171959757804872,0.2786479890346527,-3.1675000190734863,80.53500366210938,-19.4424991607666
1.17725643283436,0.0019519999623298,-0.9062159657478333,0.3001199960708618,-3.430000066757202,79.0824966430664,-19.512500762939453
1.1975539575384007,-0.0065879998728632,-0.9115839600563048,0.3023159801959991,-5.09250020980835,75.1449966430664,-18.14750099182129
1.2178514822424413,-0.0043919999152421,-0.938423991203308,0.3223240077495575,-7.664999961853027,70.89250183105469,-16.642499923706055
1.238149006946482,0.0053679998964071,-0.9579439759254456,0.3206160068511963,-8.977499961853027,68.6875,-15.539999961853027
1.2584465316505227,0.0153719997033476,-0.9647759795188904,0.3052439987659454,-6.929999828338623,68.04000091552734,-15.34749984741211
1.2787440563545633,0.0341599993407726,-0.9508680105209352,0.3150039911270141,-3.954999923706055,69.31749725341797,-15.732500076293944
1.299041581058604,0.0417240001261234,-0.9533079862594604,0.3164680004119873,-3.3600001335144043,67.55000305175781,-15.505000114440918
1.3193391057626447,0.0397720001637935,-0.961847960948944,0.3242760002613067,-4.882500171661377,65.1875,-13.947500228881836
1.3396366304666854,0.0287919994443655,-0.938423991203308,0.3286679983139038,-9.59000015258789,64.87249755859375,-12.25
1.359934155170726,0.0192760005593299,-0.901091992855072,0.3372080028057098,-14.489999771118164,65.87000274658203,-10.46500015258789
1.3802316798747667,0.0200079996138811,-0.8837679624557495,0.3474559783935547,-18.51499938964844,68.7925033569336,-10.202500343322754
1.4005292045788074,0.0034159999340772,-0.9781959652900696,0.3191519975662231,-24.342500686645508,68.11000061035156,-12.494999885559082
1.420826729282848,-0.0153719997033476,-1.0279719829559326,0.2710839807987213,-20.790000915527344,67.93499755859375,-13.982500076293944
1.4411242539868887,0.0161039996892213,-1.029191970825195,0.234727993607521,-12.774999618530272,68.87999725341797,-18.042499542236328
1.4614217786909294,0.1129719987511634,-1.0648159980773926,0.1605519950389862,-10.359999656677246,73.5875015258789,-22.732500076293945
1.48171930339497,0.1612839996814727,-1.1790080070495603,0.1027240008115768,-13.807499885559082,79.46749877929688,-24.2549991607666
1.5020168280990107,0.0668559968471527,-1.274899959564209,0.0890600010752677,-14.770000457763672,73.0625,-17.587499618530273
1.5223143528030514,-0.0639280006289482,-1.219267964363098,0.1280999928712844,-12.1274995803833,58.88750076293945,-3.972500085830689
1.542611877507092,-0.1224879994988441,-1.0809199810028076,0.1739719957113266,-8.977499961853027,50.88999938964844,4.637499809265137
1.5629094022111327,-0.0800319984555244,-0.9340319633483888,0.2117919921875,-5.670000076293945,52.0099983215332,3.0450000762939453
1.5832069269151734,0.0153719997033476,-0.8432639837265015,0.1988599896430969,-5.267499923706055,55.94750213623047,-5.565000057220459
1.603504451619214,0.1127279996871948,-0.8315519690513611,0.1415199935436248,-6.824999809265137,53.584999084472656,-18.357500076293945
1.6238019763232547,0.1786080002784729,-0.8835240006446838,0.0883279964327812,-7.262499809265137,52.43000030517578,-31.43000030517578
1.6440995010272954,0.1695799976587295,-0.9330559968948364,0.0722239986062049,-6.317500114440918,57.57500076293945,-36.907501220703125
1.664397025731336,0.1334680020809173,-0.9435479640960692,0.0910120010375976,-5.197500228881836,56.82250213623047,-32.54999923706055
1.6846945504353767,0.0924759954214096,-0.9764879941940308,0.0963799953460693,-10.289999961853027,57.540000915527344,-20.94750022888184
1.7049920751394174,0.1039439961314201,-0.986735999584198,0.0722239986062049,-16.485000610351562,66.74500274658203,-9.0649995803833
1.725289599843458,0.0961359962821006,-0.9481839537620544,0.0631959959864616,-14.94499969482422,80.86750030517578,-5.617499828338623
1.7455871245474988,0.095160000026226,-0.9601399898529052,0.0300120003521442,-13.5625,82.72250366210938,-8.470000267028809
1.7658846492515394,0.0966240018606185,-1.0072319507598877,0.0185439996421337,-13.63249969482422,78.75,-14.682499885559082
1.78618217395558,0.0907679945230484,-1.0621320009231567,0.0258639995008707,-14.06999969482422,72.7300033569336,-20.07250022888184
1.8064796986596208,0.0912560001015663,-1.102147936820984,0.0258639995008707,-13.404999732971191,70.59500122070312,-22.34749984741211
1.8267772233636614,0.1085800006985664,-1.0997079610824585,0.0558759979903698,-10.727499961853027,68.47750091552734,-21.90999984741211
1.847074748067702,0.115167997777462,-1.0457839965820312,0.0990639999508857,-9.677499771118164,71.38249969482422,-22.0674991607666
1.8673722727717428,0.109555996954441,-1.032364010810852,0.0971119999885559,-8.732500076293945,70.84000396728516,-25.795000076293945
1.8876697974757835,0.0980879962444305,-0.9869799613952636,0.1032119989395141,-5.267499923706055,66.9375,-30.729999542236328
1.9079673221798241,0.104432001709938,-0.9603840112686156,0.0929640009999275,-4.847499847412109,62.02000045776367,-33.880001068115234
1.9282648468838648,0.1324919909238815,-0.9293959736824036,0.0739319995045661,-6.28249979019165,58.275001525878906,-33.6875
1.9485623715879055,0.1568920016288757,-0.9115839600563048,0.0609999969601631,-8.487500190734863,56.57749938964844,-30.20499992370605
1.9688598962919461,0.1690919995307922,-0.9054839611053468,0.0614879988133907,-13.230000495910645,56.01750183105469,-24.377500534057617
1.9891574209959868,0.1659199893474578,-0.9228079915046692,0.0563639998435974,-20.247499465942383,58.72999954223633,-17.97249984741211
2.0094549457000275,0.1507920026779174,-0.9667279720306396,0.0456280000507831,-29.96000099182129,66.8324966430664,-10.167500495910645
2.0297524704040684,0.1578679978847503,-0.9935680031776428,0.0636840015649795,-29.96000099182129,64.69750213623047,-8.592499732971191
2.0500499951081093,0.1551840007305145,-1.0306559801101685,0.0824719965457916,-28.420000076293945,63.244998931884766,-8.522500038146973
2.07034751981215,0.1356640011072158,-1.0648159980773926,0.0839359983801841,-24.63999938964844,60.130001068115234,-10.09749984741211
2.090645044516191,0.1088239997625351,-1.0706720352172852,0.0849120020866394,-19.0049991607666,54.21500015258789,-12.477499961853027
2.110942569220232,0.0997959971427917,-1.0413919687271118,0.0975999981164932,-14.297499656677246,46.72499847412109,-13.912500381469728
2.131240093924273,0.1093119978904724,-1.0050359964370728,0.1054079979658126,-11.322500228881836,40.51250076293945,-13.475000381469728
2.1515376186283137,0.1315159946680069,-0.9652639627456664,0.0910120010375976,-9.327500343322754,35.787498474121094,-11.77750015258789
2.1718351433323546,0.1551840007305145,-0.935983955860138,0.090279996395111,-9.957500457763672,31.342500686645508,-8.452500343322754
2.1921326680363955,0.1778759956359863,-0.9206119775772096,0.0956479981541633,-12.529999732971191,25.32250022888184,-4.322500228881836
2.2124301927404364,0.1991039961576461,-0.9267119765281676,0.1090679988265037,-15.837499618530272,21.59499931335449,-0.5249999761581421
2.2327277174444773,0.2342399954795837,-0.9364719986915588,0.1049199998378753,-17.27250099182129,18.497499465942383,3.0274999141693115
2.253025242148518,0.2369239926338195,-0.94159597158432,0.100283995270729,-16.729999542236328,17.6924991607666,6.579999923706055
2.273322766852559,0.2474159896373748,-0.9511119723320008,0.0922319963574409,-14.770000457763672,16.502500534057617,10.167500495910645
2.2936202915566,0.2625440061092376,-0.9552599787712096,0.0690519958734512,-10.675000190734863,15.81999969482422,13.982500076293944
2.313917816260641,0.2886520028114319,-0.9616039991378784,0.05197199806571,-7.490000247955322,16.15250015258789,17.954999923706055
2.3342153409646818,0.2786479890346527,-0.962336003780365,0.0463600009679794,-5.372499942779541,15.802499771118164,21.227500915527344
2.3545128656687226,0.230335995554924,-0.9723399877548218,0.0871080011129379,-4.724999904632568,15.732500076293944,22.5049991607666
2.3748103903727635,0.23887600004673,-0.9925919771194458,0.1171199977397918,-3.5,9.607500076293944,21.1924991607666
2.3951079150768044,0.2627879977226257,-1.002351999282837,0.1115079969167709,2.502500057220459,5.84499979019165,18.165000915527344
2.4154054397808453,0.2725479900836944,-0.9847840070724488,0.1207799986004829,8.802499771118164,5.162499904632568,15.154999732971191
2.435702964484886,0.2598600089550018,-0.9518439769744872,0.1334680020809173,11.952500343322754,1.784999966621399,13.335000038146973
2.456000489188927,0.2435119897127151,-0.9720959663391112,0.1012599989771843,11.147500038146973,-1.9774999618530276,12.109999656677246
2.476298013892968,0.1705559939146042,-1.0384639501571655,0.0590479969978332,7.262499809265137,-0.2975000143051147,9.029999732971191
2.496595538597009,0.1249279975891113,-1.150215983390808,0.0268399994820356,0.6650000214576721,-3.745000123977661,-0.7350000143051147
2.51689306330105,0.0878399983048439,-1.226588010787964,0.0258639995008707,-4.409999847412109,-6.125,-18.479999542236328
2.5371905880050907,0.0907679945230484,-1.2592840194702148,0.085887998342514,-4.742499828338623,-6.5625,-41.47499847412109
2.5574881127091316,0.2069119960069656,-1.1392359733581543,0.0285479985177516,9.677499771118164,-5.670000076293945,-57.872501373291016
2.5777856374131725,0.1898320019245147,-1.0008879899978638,0.0107359997928142,18.165000915527344,14.9975004196167,-47.6349983215332
2.5980831621172134,0.1637239903211593,-0.9803919792175292,-0.0346480011940002,11.567500114440918,18.690000534057617,-17.552499771118164
2.6183806868212542,-0.0756400004029274,-1.0252879858016968,0.0107359997928142,4.252500057220459,35.4375,27.49250030517578
2.638678211525295,-0.1371279954910278,-0.9999119639396667,0.0390399992465972,9.59000015258789,38.0099983215332,28.40250015258789
2.658975736229336,-0.1041879951953888,-0.9801479578018188,0.0312319993972778,13.807499885559082,44.345001220703125,22.592500686645508
2.679273260933377,-0.0605119988322258,-1.0213840007781982,0.0678320005536079,13.212499618530272,54.21500015258789,19.127500534057617
2.699570785637418,-0.0380639992654323,-1.088727951049805,0.0980879962444305,14.875,59.90250015258789,16.642499923706055
2.7198683103414587,-0.0553879998624324,-1.042367935180664,0.142984002828598,24.90250015258789,61.775001525878906,11.024999618530272
2.7401658350454996,-0.047335997223854,-1.0172359943389893,0.1456679999828338,29.96000099182129,46.095001220703125,8.085000038146973
2.7604633597495405,-0.0963799953460693,-0.9718520045280457,0.142984002828598,33.14500045776367,48.317501068115234,7.4375
2.7807608844535814,-0.1490840017795562,-0.9611159563064576,0.1156559959053993,25.40999984741211,53.39250183105469,10.640000343322754
2.8010584091576223,-0.1483519971370697,-0.9259799718856812,0.1381039917469024,17.342500686645508,56.997501373291016,14.875
2.821355933861663,-0.1263919919729232,-0.9040200114250184,0.167383998632431,16.344999313354492,56.90999984741211,14.262499809265137
2.841653458565704,-0.085887998342514,-0.8908439874649048,0.1881240010261535,23.309999465942383,53.70750045776367,9.55500030517578
2.861950983269745,-0.0207399986684322,-0.9013359546661376,0.1546960026025772,29.575000762939453,50.540000915527344,4.269999980926514
2.882248507973786,0.0353799983859062,-0.9303719997406006,0.1517679989337921,32.584999084472656,53.095001220703125,-0.9975000023841858
2.9025460326778267,0.0856439992785453,-0.9550159573554992,0.1642120033502578,32.900001525878906,55.96500015258789,-6.300000190734863
2.9228435573818676,0.1229759976267814,-0.9967399835586548,0.1942239999771118,29.24250030517578,41.125,-10.482500076293944
2.9431410820859085,0.115167997777462,-1.0235799551010132,0.2083759903907776,24.167499542236328,40.16249847412109,-12.442500114440918
2.9634386067899494,-0.0129319997504353,-0.9850279688835144,0.253271996974945,23.39750099182129,59.23749923706055,-13.230000495910645
2.9837361314939903,-0.0302559994161129,-0.9474520087242126,0.2359479963779449,19.8799991607666,51.432498931884766,-10.605000495910645
3.004033656198031,-0.0268399994820356,-0.9128040075302124,0.2427799999713897,15.890000343322754,53.584999084472656,-7.595000267028809
3.024331180902072,-0.0326960012316703,-0.9040200114250184,0.260591983795166,13.912500381469728,54.442501068115234,-7.71750020980835
3.044628705606113,-0.0397720001637935,-0.9018239974975586,0.2810879945755005,13.125,52.0625,-10.359999656677246
3.064926230310154,-0.0324519984424114,-0.8854759931564331,0.2857239842414856,10.675000190734863,45.744998931884766,-11.77750015258789
3.0852237550141948,-0.0114679997786879,-0.8600999712944031,0.2845039963722229,6.177500247955322,41.755001068115234,-12.494999885559082
3.1055212797182357,-0.0080519998446106,-0.8632720112800598,0.2945079803466797,0.7699999809265137,39.584999084472656,-12.1274995803833
3.1258188044222766,-0.018300000578165,-0.8859639763832092,0.3093920052051544,-2.0299999713897705,36.400001525878906,-12.232500076293944
3.1461163291263174,-0.0107359997928142,-0.9159759879112244,0.3242760002613067,-1.5399999618530271,31.0625,-13.457500457763672
3.1664138538303583,-0.0053679998964071,-0.9142679572105408,0.3252519965171814,-1.3300000429153442,26.792499542236328,-14.9975004196167
3.1867113785343992,0.0080519998446106,-0.9284200072288512,0.317931979894638,-2.0299999713897705,21.4375,-16.4325008392334
3.20700890323844,0.0085399998351931,-0.929152011871338,0.3325719833374023,-0.6650000214576721,20.70249938964844,-18.112499237060547
3.227306427942481,0.0609999969601631,-0.9303719997406006,0.3528240025043487,7.297500133514404,16.8174991607666,-19.84499931335449
3.247603952646522,0.0107359997928142,-0.9642879962921144,0.3613640069961548,4.8125,17.604999542236328,-21.4375
3.267901477350563,-0.0002439999952912,-0.9413520097732544,0.3320840001106262,5.284999847412109,18.82999992370605,-20.177499771118164
3.2881990020546037,-0.0090279998257756,-0.8864519596099854,0.3903999924659729,2.047499895095825,24.342500686645508,-13.789999961853027
3.3084965267586446,-0.0068319998681545,-0.9040200114250184,0.4179719984531402,-3.7799999713897705,15.207500457763672,-7.892499923706055
3.3287940514626855,-0.028303999453783,-0.9659959673881532,0.416020005941391,-5.110000133514404,15.119999885559082,-4.567500114440918
3.3490915761667264,-0.0702719986438751,-1.0125999450683594,0.3852759897708893,-3.6575000286102295,23.65999984741211,-0.4550000131130218
3.3693891008707673,-0.1251720041036605,-1.0287039279937744,0.3925960063934326,-3.867500066757202,30.59000015258789,4.059999942779541
3.389686625574808,-0.1129719987511634,-1.1411880254745483,0.3913759887218475,-2.117500066757202,26.582500457763672,6.28249979019165
3.409984150278849,-0.0078079998493194,-1.297104001045227,0.354775995016098,5.84499979019165,23.170000076293945,9.3100004196167
3.43028167498289,0.0007319999858736,-1.430083990097046,0.273279994726181,15.260000228881836,24.01000022888184,19.0575008392334
3.450579199686931,-0.0580720007419586,-1.391044020652771,0.2283839881420135,22.5049991607666,12.25,33.82749938964844
3.4708767243909717,-0.1825120002031326,-1.0877519845962524,0.2127679884433746,26.530000686645508,-5.704999923706055,36.73250198364258
3.4911742490950126,-0.2391199916601181,-0.7895839810371399,0.2576639950275421,18.23500061035156,-16.8700008392334,27.212499618530277
3.5114717737990535,-0.1839759945869445,-0.7129679918289185,0.2364359945058822,4.934999942779541,-23.20499992370605,12.862500190734863
3.5317692985030944,-0.0875959992408752,-0.7324879765510559,0.1761679947376251,-0.8924999833106995,-33.58250045776367,-4.742499828338623
3.5520668232071353,0.0075639998540282,-0.773967981338501,0.0829599946737289,-4.497499942779541,-49.560001373291016,-18.059999465942383
3.572364347911176,0.0243999995291233,-0.8344799876213074,0.0495319999754428,-10.762499809265137,-44.6775016784668,-21.315000534057617
3.592661872615217,0.0143959997221827,-0.8508279919624329,0.0507519990205764,-17.46500015258789,-41.282501220703125,-14.489999771118164
3.612959397319258,0.0009759999811649,-0.9476959705352784,0.0246439985930919,-27.42250061035156,-41.47499847412109,0.6299999952316284
3.633256922023299,-0.0146399997174739,-1.0909240245819092,0.0395279973745346,-31.97249984741211,-40.21500015258789,17.3075008392334
3.6535544467273398,-0.0092719998210668,-1.0923880338668823,0.1122400015592575,-21.315000534057617,-44.782501220703125,21.1924991607666
3.6738519714313806,-0.0224479995667934,-1.09116792678833,0.1642120033502578,-11.427499771118164,-46.91749954223633,17.412500381469727
3.6941494961354215,0.0024399999529123,-1.1316720247268677,0.1234639957547187,-7.227499961853027,-50.505001068115234,10.079999923706056
3.7144470208394624,0.0075639998540282,-1.1089799404144287,0.0968680009245872,-5.775000095367432,-54.75749969482422,4.059999942779541
3.7347445455435033,0.0634399950504303,-1.0855560302734375,0.1215119957923889,-7.559999942779541,-69.94750213623047,0.7875000238418579
3.755042070247544,0.0990639999508857,-1.0836039781570437,0.1466439962387085,-9.047499656677246,-77.71749877929688,0.2100000083446502
3.775339594951585,0.1268799901008606,-1.04066002368927,0.1193159967660904,-5.355000019073486,-69.37000274658203,-1.662500023841858
3.795637119655626,0.1063839942216873,-0.9542839527130128,0.1161440014839172,0.8050000071525574,-57.41749954223633,-2.677500009536743
3.815934644359667,0.0873520001769065,-0.8871839642524719,0.1127279996871948,4.130000114440918,-64.87249755859375,-0.9275000095367432
3.836232169063708,0.0092719998210668,-0.8679080009460449,0.099551998078823,-8.6274995803833,-72.34500122070312,8.819999694824219
3.8565296937677487,-0.0290360003709793,-0.9106079936027528,0.1373720020055771,-18.287500381469727,-81.14749908447266,14.017499923706056
3.8768272184717896,0.0273279994726181,-0.9372040033340454,0.1334680020809173,-22.08500099182129,-94.29000091552734,18.88249969482422
3.8971247431758305,0.0495319999754428,-0.9977160096168518,0.1305399984121322,-24.86750030517578,-90.35250091552734,23.905000686645508
3.9174222678798714,0.0856439992785453,-1.0306559801101685,0.1193159967660904,-22.487499237060547,-93.9749984741211,27.457500457763672
3.9377197925839122,0.1354199945926666,-1.0208959579467771,0.1078479960560798,-16.922500610351562,-93.30999755859376,29.1200008392334
3.958017317287953,0.1908079981803894,-1.0072319507598877,0.0990639999508857,-14.647500038146973,-92.43499755859376,30.030000686645508
3.978314841991994,0.2310680001974105,-1.0067440271377563,0.0868639945983886,-15.032500267028809,-89.04000091552734,30.34499931335449
3.998612366696035,0.2178919911384582,-1.000643968582153,0.0595359988510608,-16.450000762939453,-86.25749969482422,29.067501068115234
4.018909891400075,0.1851959973573684,-1.0091840028762815,0.0353799983859062,-18.76000022888184,-85.95999908447266,25.8125
4.039207416104116,0.1869039982557296,-1.0052800178527832,0.013663999736309,-18.217500686645508,-87.81500244140625,23.11750030517578
4.059504940808156,0.20032399892807,-0.9925919771194458,-0.0134199997410178,-14.350000381469728,-86.59000396728516,22.190000534057617
4.079802465512197,0.2171600013971328,-0.9855159521102904,-0.0412359982728958,-11.8125,-85.26000213623047,22.69750022888184
4.100099990216237,0.1871479898691177,-1.0104039907455444,-0.0751519948244094,-8.574999809265137,-80.97250366210938,21.6299991607666
4.120397514920278,0.1505479961633682,-1.0001559257507324,-0.0502640008926391,-3.4124999046325684,-82.93250274658203,20.020000457763672
4.140695039624318,0.0897919982671737,-1.024067997932434,-0.0605119988322258,-1.277500033378601,-83.5625,18.34000015258789
4.1609925643283585,0.0200079996138811,-1.0216280221939087,-0.0912560001015663,-1.190000057220459,-83.10749816894531,16.572500228881836
4.181290089032399,-0.1246839985251426,-0.9855159521102904,-0.0924759954214096,-4.130000114440918,-80.91999816894531,17.079999923706055
4.201587613736439,-0.1878799945116043,-1.0279719829559326,-0.0739319995045661,-14.664999961853027,-95.07749938964844,20.229999542236328
4.22188513844048,-0.2005679905414581,-1.0135760307312012,0.0070759998634457,-19.582500457763672,-99.68000030517578,22.977500915527344
4.24218266314452,-0.1656759977340698,-1.0684759616851809,0.0590479969978332,-26.565000534057617,-99.01499938964844,24.920000076293945
4.262480187848561,-0.1905639916658401,-1.087019920349121,0.0793000012636184,-20.614999771118164,-98.71749877929688,24.07999992370605
4.282777712552601,-0.2081319987773895,-1.0301679372787476,0.1271239966154098,-8.574999809265137,-101.44750213623048,23.677499771118164
4.303075237256642,-0.1827559918165207,-1.0194319486618042,0.1551840007305145,-4.21750020980835,-105.1050033569336,25.09499931335449
4.323372761960682,-0.1444479972124099,-1.034559965133667,0.1771439909934997,-3.1675000190734863,-102.375,25.5674991607666
4.3436702866647225,-0.1198039948940277,-1.046272039413452,0.2357039898633957,-3.289999961853028,-98.6125030517578,24.395000457763672
4.363967811368763,-0.0670999959111213,-1.0701839923858645,0.2837719917297363,1.3125,-89.87999725341797,21.01749992370605
4.384265336072803,-0.0402599982917308,-1.016503930091858,0.2635200023651123,17.97249984741211,-80.30750274658203,14.577500343322754
4.404562860776844,-0.037331998348236,-0.900115966796875,0.2332639992237091,29.26000022888184,-70.89250183105469,8.855000495910645
4.424860385480884,-0.0588039979338645,-0.8598560094833374,0.1876360028982162,27.020000457763672,-63.0,6.28249979019165
4.445157910184925,-0.0719799995422363,-0.8500959873199463,0.1742160022258758,12.897500038146973,-62.09000015258789,0.7524999976158142
4.465455434888965,-0.110287994146347,-0.9081679582595824,0.1973959952592849,0.5425000190734863,-52.692501068115234,-1.3125
4.485752959593006,-0.0256199985742568,-0.9879559874534608,0.1627479940652847,-3.009999990463257,-50.24250030517578,-4.445000171661377
4.506050484297046,-0.0204959996044635,-1.0091840028762815,0.1500599980354309,3.867500066757202,-39.95249938964844,-8.382499694824219
4.526348009001087,-0.066611997783184,-1.006011962890625,0.0688079968094825,15.8725004196167,-43.27750015258789,-14.385000228881836
4.546645533705127,-0.1119959950447082,-1.0104039907455444,0.0505079999566078,17.71000099182129,-45.220001220703125,-15.855000495910645
4.5669430584091675,-0.1310279965400695,-0.9918599724769592,0.0944279953837394,11.00749969482422,-42.9275016784668,-13.842499732971191
4.587240583113208,-0.1385920047760009,-0.961847960948944,0.0749079957604408,4.724999904632568,-42.71749877929688,-12.31999969482422
4.607538107817248,-0.1627479940652847,-0.9396439790725708,0.0492879971861839,-0.1924999952316284,-36.13750076293945,-11.864999771118164
4.627835632521289,-0.1681160032749176,-0.9389119744300842,0.0400159992277622,-5.320000171661377,-36.76750183105469,-9.887499809265137
4.648133157225329,-0.1378600001335144,-0.9469639658927916,0.0270840004086494,-8.417500495910645,-41.43999862670898,-7.980000019073486
4.66843068192937,-0.1376159936189651,-0.958675980567932,0.0178119987249374,-9.9399995803833,-38.150001525878906,-5.862500190734863
4.68872820663341,-0.1468880027532577,-0.9620919823646544,0.013663999736309,-10.43000030517578,-35.84000015258789,-3.307500123977661
4.709025731337451,-0.1407880038022995,-0.9413520097732544,0.0197639986872673,-10.97249984741211,-37.432498931884766,-2.0999999046325684
4.729323256041491,-0.1200480014085769,-0.9120720028877258,0.0019519999623298,-13.755000114440918,-38.56999969482422,-2.2225000858306885
4.7496207807455315,-0.1385920047760009,-0.8964560031890869,-0.0195199996232986,-15.557499885559082,-34.89500045776367,-4.077499866485596
4.769918305449572,-0.0819839984178543,-0.8737639784812927,-0.062219999730587,-17.167499542236328,-36.17250061035156,-7.927500247955322
4.790215830153612,-0.0109799997881054,-0.9191479682922364,-0.0653920024633407,-23.082500457763672,-32.375,-10.079999923706056
4.810513354857653,0.0805199965834617,-1.0435879230499268,-0.0893040001392364,-28.13999938964844,-26.02250099182129,-7.752500057220459
4.830810879561693,0.13298000395298,-1.120203971862793,-0.0756400004029274,-27.912500381469727,-10.114999771118164,-2.432500123977661
4.851108404265734,0.1080919951200485,-1.1189839839935305,0.0480679981410503,-24.21999931335449,3.115000009536743,2.3975000381469727
4.871405928969774,0.1122400015592575,-1.0421240329742432,0.1029679998755455,-10.989999771118164,2.012500047683716,0.6299999952316284
4.891703453673815,0.0783239975571632,-1.009671926498413,0.1551840007305145,0.962499976158142,5.197500228881836,-4.462500095367432
4.912000978377855,0.0836919993162155,-0.9611159563064576,0.1510359942913055,8.119999885559082,-5.267499923706055,-10.9375
4.9322985030818955,0.0790559947490692,-1.0213840007781982,0.1937360018491745,4.025000095367432,-7.630000114440918,-13.807499885559082
4.952596027785936,0.1368840038776397,-1.2475719451904297,0.1551840007305145,-9.292500495910645,-6.929999828338623,-4.322500228881836
4.972893552489976,0.2000799924135208,-1.5101159811019895,0.171775996685028,-16.22249984741211,-5.074999809265137,18.30500030517578
4.993191077194017,0.1871479898691177,-1.463511943817139,0.322079986333847,-7.612500190734863,14.524999618530272,40.28499984741211
5.013488601898057,0.2659600079059601,-1.2507439851760864,0.4472520053386688,9.69499969482422,9.397500038146973,41.317501068115234
5.033786126602098,0.2127679884433746,-1.110443949699402,0.4365159869194031,23.362499237060547,27.387500762939453,17.412500381469727
5.054083651306138,0.2086199969053268,-0.9215880036354064,0.2576639950275421,17.167499542236328,0.0525000020861625,-46.21749877929688
5.074381176010179,0.1461559981107711,-0.8940159678459167,0.1525000035762787,7.28000020980835,1.995000004768372,-61.005001068115234
5.094678700714219,0.0487999990582466,-0.8659560084342957,0.1934919953346252,9.730000495910645,0.0874999985098838,-56.42000198364258
5.11497622541826,0.0641719996929168,-0.6060959696769714,0.0636840015649795,12.72249984741211,-12.267499923706056,-42.26250076293945
5.1352737501223,0.0207399986684322,-0.59170001745224,0.071492001414299,-16.905000686645508,6.894999980926514,-25.77750015258789
5.1555712748263405,0.0358680002391338,-0.7395640015602112,0.1461559981107711,-47.07500076293945,-2.6600000858306885,-9.11750030517578
5.175868799530381,0.109555996954441,-0.9274439811706544,0.2030079960823059,-56.42000198364258,-22.08500099182129,2.380000114440918
5.196166324234421,0.1886119991540908,-1.1116639375686646,0.224723994731903,-43.907501220703125,-12.792500495910645,5.565000057220459
5.216463848938462,0.1690919995307922,-1.207311987876892,0.2227720022201538,-19.61750030517578,5.670000076293945,6.054999828338623
5.236761373642502,0.2408279925584793,-1.2148759365081787,0.1778759956359863,5.179999828338623,-8.732500076293945,5.215000152587891
5.257058898346543,0.2557120025157928,-1.10971200466156,0.1647000014781952,26.75749969482422,-10.202500343322754,2.134999990463257
5.277356423050583,0.2952399849891662,-0.9847840070724488,0.1200480014085769,37.22249984741211,-13.05500030517578,-1.924999952316284
5.297653947754624,0.2662039995193481,-0.9257360100746156,0.0985759943723678,34.10750198364258,-1.3650000095367432,-3.5174999237060547
5.317951472458664,0.2198439985513687,-0.9123159646987916,0.0810080021619796,23.065000534057617,9.1875,-1.1375000476837158
5.3382489971627045,0.171775996685028,-0.9064599871635436,0.0705159977078437,13.93000030517578,17.815000534057617,0.2800000011920929
5.358546521866745,0.1215119957923889,-0.9198799729347228,0.0788119956851005,8.295000076293945,20.125,0.3499999940395355
5.378844046570785,0.0988200008869171,-0.941107988357544,0.0927200019359588,6.615000247955322,17.02750015258789,0.3499999940395355
5.399141571274826,0.0707599967718124,-0.97843998670578,0.0978439971804618,8.137499809265137,13.702500343322754,0.8924999833106995
5.419439095978866,0.0446520000696182,-1.0016199350357056,0.0883279964327812,11.392499923706056,10.587499618530272,2.555000066757202
5.439736620682907,0.0341599993407726,-1.007475972175598,0.0702719986438751,13.982500076293944,7.962500095367432,5.582499980926514
5.460034145386947,0.0458719991147518,-1.0033279657363892,0.0487999990582466,16.030000686645508,6.28249979019165,8.855000495910645
5.480331670090988,0.0680759996175766,-0.981611967086792,0.0563639998435974,16.292499542236328,5.110000133514404,11.480000495910645
5.500629194795028,0.0978439971804618,-0.9877119660377502,0.041967999190092,12.914999961853027,4.777500152587891,14.06999969482422
5.5209267194990685,0.0980879962444305,-0.9718520045280457,0.0197639986872673,12.18000030517578,7.28000020980835,16.59000015258789
5.541224244203109,0.0875959992408752,-0.9625799655914308,0.0036599999293684,11.829999923706056,7.752500057220459,19.02250099182129
5.561521768907149,0.0690519958734512,-0.9491599798202516,0.0097599998116493,9.414999961853027,9.835000038146973,22.190000534057617
5.58181929361119,0.052216000854969,-0.969655990600586,0.003171999938786,4.707499980926514,13.352499961853027,23.99250030517578
5.60211681831523,0.0300120003521442,-0.98990797996521,-0.009515999816358,4.077499866485596,19.372499465942383,22.96000099182129
5.622414343019271,0.0380639992654323,-0.9786840081214904,-0.0051239999011158,6.369999885559082,17.850000381469727,20.649999618530277
5.642711867723311,0.0126879997551441,-0.9747799634933472,0.010491999797523,6.195000171661377,19.512500762939453,19.18000030517578
5.663009392427352,-0.1166319996118545,-0.9874680042266846,0.0017079999670386,-4.235000133514404,19.98500061035156,22.802499771118164
5.683306917131392,-0.1722639948129654,-0.9979599714279176,-0.0197639986872673,-6.545000076293945,14.105000495910645,20.70249938964844
5.703604441835433,-0.234484001994133,-1.0243120193481443,0.075883999466896,-17.762500762939453,1.3125,16.502500534057617
5.723901966539473,-0.2735239863395691,-1.105563998222351,0.1539639979600906,-31.377500534057617,-17.482500076293945,9.537500381469728
5.7441994912435135,-0.2132560014724731,-1.118008017539978,0.2547360062599182,-27.71999931335449,-36.48749923706055,0.1400000005960464
5.764497015947554,-0.0661239996552467,-1.0445640087127686,0.2888959944248199,-15.050000190734863,-51.275001525878906,-0.6650000214576721
5.784794540651594,0.0346480011940002,-0.9659959673881532,0.2959719896316528,-7.595000267028809,-53.025001525878906,6.912499904632568
5.805092065355635,0.0629519969224929,-0.957211971282959,0.3047559857368469,-5.897500038146973,-54.70500183105469,16.030000686645508
5.825389590059675,0.0212280005216598,-0.9945439696311952,0.2869440019130707,-2.345000028610229,-58.52000045776367,21.857500076293945
5.845687114763716,0.0065879998728632,-1.044319987297058,0.2422920018434524,2.782500028610229,-59.84999847412109,25.77750015258789
5.865984639467756,0.0317199975252151,-1.0589599609375,0.224480003118515,4.322500228881836,-53.95249938964844,27.94750022888184
5.886282164171797,0.0785679966211319,-1.0618879795074463,0.2644959986209869,-0.9975000023841858,-42.73500061035156,26.232500076293945
5.906579688875837,0.0897919982671737,-1.0660359859466553,0.3057319819927215,-5.914999961853027,-34.63249969482422,20.7549991607666
5.9268772135798775,0.0517279990017414,-1.0577399730682373,0.3267160058021545,-3.289999961853028,-34.037498474121094,13.772500038146973
5.947174738283918,0.047580000013113,-1.0367560386657717,0.3045119941234588,4.724999904632568,-39.602500915527344,9.887499809265137
5.967472262987958,0.0265959985554218,-0.97843998670578,0.2561999857425689,16.4325008392334,-41.02000045776367,8.242500305175781
5.987769787691999,0.0551439970731735,-0.9237839579582214,0.2076440006494522,22.27750015258789,-44.345001220703125,8.645000457763672
6.008067312396039,0.0539239980280399,-0.8913319706916809,0.224480003118515,17.342500686645508,-33.28499984741211,11.9350004196167
6.02836483710008,0.0253759995102882,-0.868395984172821,0.2159399986267089,9.0649995803833,-23.467500686645508,15.067500114440918
6.04866236180412,0.0078079998493194,-0.8525359630584717,0.1944679915904998,-0.4550000131130218,-18.725000381469727,15.78499984741211
6.068959886508161,-0.0041479999199509,-0.8952359557151794,0.2095959931612014,-10.395000457763672,-15.119999885559082,14.192500114440918
6.089257411212201,-0.0217159986495971,-0.9462319612503052,0.2139879912137985,-14.297499656677246,-12.039999961853027,10.675000190734863
6.1095549359162415,-0.0553879998624324,-0.9928359985351562,0.2113039940595626,-11.760000228881836,-12.267499923706056,5.704999923706055
6.129852460620282,-0.100283995270729,-1.0430999994277954,0.2073999941349029,-3.7100000381469727,-17.219999313354492,-0.699999988079071
6.150149985324322,-0.109555996954441,-1.0421240329742432,0.210327997803688,3.972500085830689,-24.780000686645508,-5.670000076293945
6.170447510028363,-0.0895479992032051,-1.0228480100631714,0.2147199958562851,1.715000033378601,-23.712499618530277,-5.740000247955322
6.190745034732403,-0.1017479971051216,-0.9969840049743652,0.2076440006494522,-1.0499999523162842,-13.212499618530272,-3.184999942779541
6.211042559436444,-0.1154119968414306,-0.945743978023529,0.1930039972066879,1.277500033378601,-12.039999961853027,-2.5199999809265137
6.231340084140484,-0.1241960003972053,-0.9101200103759766,0.1678719967603683,1.347499966621399,-11.30500030517578,-2.5374999046325684
6.251637608844525,-0.1256600022315979,-0.8932839632034302,0.1544519960880279,-1.680000066757202,-6.072500228881836,-3.115000009536743
6.271935133548565,-0.0546559989452362,-0.9584319591522216,0.1849519908428192,-8.977499961853027,-8.1899995803833,-5.775000095367432
6.292232658252606,-0.061243999749422,-0.97843998670578,0.1869039982557296,-3.7100000381469727,-5.40749979019165,-10.954999923706056
6.312530182956646,-0.0875959992408752,-0.9923479557037354,0.1705559939146042,1.8899999856948853,-10.46500015258789,-16.677499771118164
6.3328277076606865,-0.1054079979658126,-1.0116239786148071,0.1705559939146042,2.7300000190734863,-12.162500381469728,-20.33500099182129
6.353125232364727,-0.1158999949693679,-1.050663948059082,0.1678719967603683,1.3650000095367432,-11.672499656677246,-20.77250099182129
6.373422757068767,-0.1317600011825561,-1.088727951049805,0.17323999106884,3.184999942779541,-11.864999771118164,-18.357500076293945
6.393720281772808,-0.1166319996118545,-1.0670119524002075,0.1861719936132431,8.452500343322754,-14.40250015258789,-15.154999732971191
6.414017806476848,-0.0675880014896392,-1.018455982208252,0.1803160011768341,14.315000534057615,-16.520000457763672,-13.614999771118164
6.434315331180889,-0.0314759984612464,-0.9745360016822816,0.1593319922685623,18.82999992370605,-18.84749984741211,-13.859999656677246
6.454612855884929,0.0222040005028247,-0.9747799634933472,0.1310279965400695,18.637500762939453,-19.739999771118164,-14.542500495910645
6.47491038058897,0.0561200007796287,-0.9855159521102904,0.1193159967660904,14.94499969482422,-18.77750015258789,-11.88249969482422
6.49520790529301,0.0368440002202987,-0.9694119691848756,0.1376159936189651,12.914999961853027,-13.545000076293944,-8.767499923706055
6.5155054299970505,0.0370879992842674,-0.9550159573554992,0.1393239945173263,10.587499618530272,-13.422499656677246,-7.052500247955322
6.535802954701091,0.0363559983670711,-0.9550159573554992,0.1446920037269592,6.720000267028809,-12.407500267028809,-6.054999828338623
6.556100479405131,0.0541680008172988,-0.958675980567932,0.1490840017795562,3.745000123977661,-11.44499969482422,-6.28249979019165
6.576398004109172,0.0670999959111213,-0.9562360048294068,0.1476199924945831,2.1524999141693115,-9.852499961853027,-6.492499828338623
6.596695528813212,0.0570959970355033,-0.9735599756240844,0.1315159946680069,0.332500010728836,-7.945000171661377,-5.215000152587891
6.616993053517253,0.0261080004274845,-1.0238239765167236,0.1256600022315979,-0.3499999940395355,-5.84499979019165,-2.9049999713897705
6.637290578221293,0.0041479999199509,-1.0613999366760254,0.1268799901008606,1.8899999856948853,-6.422500133514404,-0.2975000143051147
6.657588102925334,0.0043919999152421,-1.0789679288864136,0.1251720041036605,6.650000095367432,-8.295000076293945,1.4874999523162842
6.677885627629374,0.0187879987061023,-1.0538359880447388,0.1315159946680069,10.255000114440918,-7.420000076293945,3.132499933242798
6.6981831523334145,0.0346480011940002,-0.9860039949417114,0.1420079916715622,10.447500228881836,-4.480000019073486,4.847499847412109
6.718480677037455,0.06734399497509,-0.9535520076751708,0.1544519960880279,7.962500095367432,-1.9075000286102293,4.96999979019165
6.738778201741495,0.0863759964704513,-0.9274439811706544,0.1505479961633682,7.017499923706055,-0.3149999976158142,3.3424999713897705
6.759075726445536,0.095891997218132,-0.9167079925537108,0.1446920037269592,4.287499904632568,-0.699999988079071,1.0850000381469729
6.779373251149576,0.0934519991278648,-0.9171959757804872,0.1639679968357086,0.9100000262260436,1.5924999713897705,-1.5750000476837158
6.799670775853617,0.0841799974441528,-0.9318360090255736,0.1603080034255981,-4.567500114440918,3.325000047683716,-2.712500095367432
6.819968300557657,0.066611997783184,-0.9576999545097352,0.1442039906978607,-9.397500038146973,3.640000104904175,-2.782500028610229
6.840265825261698,0.0387960001826286,-0.9767319560050964,0.1232199966907501,-10.779999732971191,3.7100000381469727,-3.132499933242798
6.860563349965738,0.0173240005970001,-0.9991799592971802,0.1278560012578964,-11.532500267028809,3.307500123977661,-3.115000009536743
6.880860874669779,0.0280600003898143,-1.0560319423675537,0.1459119915962219,-8.732500076293945,1.924999952316284,0.262499988079071
6.901158399373819,0.0517279990017414,-1.0401719808578491,0.153231993317604,-4.742499828338623,1.4700000286102295,1.627500057220459
6.9214559240778595,0.0734440013766288,-1.0130879878997805,0.1446920037269592,-1.627500057220459,1.5399999618530271,2.275000095367432
6.9417534487819,0.0868639945983886,-0.97843998670578,0.1320039927959442,0.8924999833106995,1.4700000286102295,1.4700000286102295
6.96205097348594,0.0900359973311424,-0.9542839527130128,0.1256600022315979,0.7699999809265137,2.0299999713897705,-0.0350000001490116
6.982348498189981,0.0829599946737289,-0.9596520066261292,0.1229759976267814,-1.837499976158142,3.0799999237060547,-0.9975000023841858
7.002646022894021,0.0580720007419586,-0.9672159552574158,0.1141919940710067,-4.585000038146973,5.022500038146973,-0.9449999928474426
7.022943547598062,0.0385520011186599,-0.981123983860016,0.118827998638153,-6.982500076293945,6.28249979019165,-0.4550000131130218
7.043241072302102,0.0344039984047412,-1.0043039321899414,0.1241960003972053,-7.525000095367432,6.597499847412109,0.3499999940395355
7.063538597006143,0.028303999453783,-1.006011962890625,0.1210239976644516,-7.385000228881836,7.647500038146973,1.4874999523162842
7.083836121710183,0.0285479985177516,-1.0167479515075684,0.1268799901008606,-9.3100004196167,7.349999904632568,1.9774999618530276
7.1041336464142235,0.0368440002202987,-1.0135760307312012,0.1219999939203262,-8.260000228881836,4.917500019073486,0.8224999904632568
7.124431171118264,0.0524599999189376,-0.9943000078201294,0.1205359995365142,-5.949999809265137,3.867500066757202,-0.3499999940395355
7.144728695822304,0.0568519979715347,-0.9835639595985411,0.1190719977021217,-5.932499885559082,4.445000171661377,-1.0149999856948853
7.165026220526345,0.0609999969601631,-0.9808799624443054,0.1176079958677291,-7.087500095367432,5.110000133514404,-1.5924999713897705
7.185323745230385,0.0592919997870922,-0.9806360006332396,0.1176079958677291,-8.382499694824219,6.247499942779541,-1.995000004768372
7.205621269934426,0.05197199806571,-0.9862479567527772,0.1176079958677291,-9.7475004196167,7.157500267028809,-2.275000095367432
7.225918794638466,0.0514839999377727,-0.998203992843628,0.1285879909992218,-10.220000267028809,7.402500152587891,-2.572499990463257
7.246216319342507,0.0485559999942779,-1.0089399814605713,0.1368840038776397,-9.082500457763672,7.577499866485596,-2.2225000858306885
7.266513844046547,0.0487999990582466,-1.0160160064697266,0.1407880038022995,-7.052500247955322,7.139999866485596,-1.75
7.2868113687505875,0.0505079999566078,-1.0145519971847534,0.1393239945173263,-4.829999923706055,7.175000190734863,-1.347499966621399
7.307108893454628,0.0517279990017414,-1.0084519386291504,0.1395680010318756,-2.9574999809265137,6.877500057220459,-1.0149999856948853
7.3274064181586684,0.0500199981033802,-1.0025960206985474,0.1351760029792785,-1.3825000524520874,6.510000228881836,-0.8400000333786011
7.347703942862709,0.0502640008926391,-0.9989359974861144,0.1276119947433471,-0.1400000005960464,6.037499904632568,-0.4550000131130218
7.368001467566749,0.046604000031948,-0.9935680031776428,0.1251720041036605,0.699999988079071,6.247499942779541,0.2100000083446502
7.38829899227079,0.0407480001449584,-0.9901520013809204,0.1263919919729232,0.7350000143051147,6.824999809265137,0.9800000190734864
7.40859651697483,0.0361119993031024,-0.9896639585494996,0.1266359984874725,0.5600000023841858,7.385000228881836,1.5225000381469729
7.428894041678871,0.0326960012316703,-0.9911279678344728,0.1259039938449859,0.4025000035762787,7.525000095367432,1.784999966621399
7.449191566382911,0.0304999984800815,-0.9960079789161682,0.1251720041036605,0.6299999952316284,6.807499885559082,1.5049999952316284
7.469489091086952,0.0290360003709793,-1.0016199350357056,0.1268799901008606,1.1024999618530271,6.387499809265137,0.9449999928474426
7.489786615790992,0.0268399994820356,-1.004547953605652,0.1217559948563575,2.502500057220459,5.494999885559082,0.2100000083446502
7.5100841404950325,0.0207399986684322,-0.9960079789161682,0.1212679967284202,3.255000114440918,4.8125,0.1400000005960464
7.530381665199073,0.0173240005970001,-0.990884006023407,0.1249279975891113,2.8350000381469727,4.375,-0.1050000041723251
7.550679189903113,0.0165919996798038,-0.9921039938926696,0.1256600022315979,2.117500066757202,3.9375,-0.4550000131130218
7.570976714607154,0.0163480006158351,-0.9960079789161682,0.1241960003972053,1.627500057220459,3.552500009536743,-0.6650000214576721
7.591274239311194,0.0170799996703863,-0.9979599714279176,0.1232199966907501,1.715000033378601,2.817500114440918,-0.9275000095367432
7.611571764015235,0.0161039996892213,-0.9984479546546936,0.1254159957170486,2.0999999046325684,2.1524999141693115,-1.4700000286102295
7.631869288719275,0.0200079996138811,-0.993079960346222,0.1263919919729232,2.712500095367432,1.1200000047683716,-2.065000057220459
7.652166813423316,0.0222040005028247,-0.987223982810974,0.1280999928712844,2.817500114440918,0.5425000190734863,-2.362499952316284
7.672464338127356,0.0178119987249374,-0.9838079810142516,0.1241960003972053,2.275000095367432,0.262499988079071,-2.5374999046325684
7.6927618628313965,0.0246439985930919,-0.9979599714279176,0.1307840049266815,0.3675000071525574,0.1749999970197677,-1.627500057220459
7.713059387535437,0.0268399994820356,-0.9925919771194458,0.1332239955663681,0.2275000065565109,0.1574999988079071,-0.8575000166893005
7.733356912239477,0.0224479995667934,-0.9916160106658936,0.1293199956417083,0.4724999964237213,-0.2450000047683715,-0.6299999952316284
7.753654436943518,0.0197639986872673,-0.9884439706802368,0.1285879909992218,0.9100000262260436,-0.5249999761581421,-0.9100000262260436
7.773951961647558,0.0226919986307621,-0.9869799613952636,0.1283439993858337,0.9975000023841858,-0.9100000262260436,-1.0149999856948853
7.794249486351599,0.0192760005593299,-0.9925919771194458,0.1276119947433471,0.7699999809265137,-1.1024999618530271,-0.7524999976158142
7.814547011055639,0.013663999736309,-0.9928359985351562,0.1239520013332367,0.8050000071525574,-1.5399999618530271,-0.4724999964237213
7.83484453575968,0.0143959997221827,-0.9901520013809204,0.1249279975891113,0.4724999964237213,-1.9600000381469729,-0.0525000020861625
7.85514206046372,0.0175679996609687,-0.9921039938926696,0.1254159957170486,-0.2975000143051147,-2.6075000762939453,0.4550000131130218
7.8754395851677605,0.0187879987061023,-0.9962520003318788,0.124439999461174,-0.6825000047683716,-2.9574999809265137,0.9275000095367432
7.895737109871801,0.0231800004839897,-0.9957639575004578,0.1251720041036605,-0.3149999976158142,-3.132499933242798,1.1375000476837158
7.9160346345758414,0.0273279994726181,-0.9969840049743652,0.124439999461174,-0.0874999985098838,-3.0625,1.225000023841858
7.936332159279882,0.028303999453783,-1.0016199350357056,0.1212679967284202,0.1749999970197677,-3.132499933242798,1.277500033378601
7.956629683983922,0.0251320004463195,-1.0011320114135742,0.1219999939203262,0.8224999904632568,-3.0625,1.3825000524520874
7.976927208687963,0.0217159986495971,-0.998203992843628,0.1237079948186874,1.4524999856948853,-3.255000114440918,1.5049999952316284
7.997224733392003,0.0175679996609687,-0.9977160096168518,0.1246839985251426,1.837499976158142,-3.7100000381469727,1.5225000381469729
8.017522258096044,0.0146399997174739,-0.990395963191986,0.1259039938449859,2.380000114440918,-4.235000133514404,1.4175000190734863
8.037819782800085,0.0180559996515512,-0.9889319539070128,0.1229759976267814,2.414999961853028,-4.672500133514404,1.3650000095367432
8.058117307504126,0.0178119987249374,-0.9896639585494996,0.1239520013332367,2.275000095367432,-4.392499923706055,1.4874999523162842
8.078414832208168,0.0119559997692704,-0.9947879910469056,0.1232199966907501,0.9800000190734864,-4.707499980926514,2.309999942779541
8.098712356912209,0.0002439999952912,-0.9911279678344728,0.1224879994988441,1.680000066757202,-4.567500114440918,2.747499942779541
8.11900988161625,-0.0060999998822808,-0.9891759753227234,0.1217559948563575,1.8550000190734863,-4.235000133514404,3.4649999141693115
8.139307406320292,-0.0051239999011158,-0.9901520013809204,0.1180959939956665,1.627500057220459,-3.797500133514404,4.462500095367432
8.159604931024333,-0.0056119998916983,-0.9894199967384338,0.1129719987511634,0.9100000262260436,-3.2725000381469727,5.425000190734863
8.179902455728374,-0.0097599998116493,-0.985759973526001,0.115167997777462,-0.1574999988079071,-2.852499961853028,5.704999923706055
8.200199980432416,-0.0131759997457265,-0.9906399846076964,0.1168759986758232,-1.5924999713897705,-2.677500009536743,5.039999961853027
8.220497505136457,-0.0146399997174739,-0.9964959621429444,0.1171199977397918,-2.484999895095825,-2.852499961853028,3.920000076293945
8.240795029840498,-0.0141519997268915,-0.9999119639396667,0.1217559948563575,-2.362499952316284,-3.289999961853028,2.6424999237060547
8.26109255454454,-0.0078079998493194,-1.000643968582153,0.1254159957170486,-1.715000033378601,-3.3949999809265137,1.8200000524520876
8.281390079248581,-0.0065879998728632,-0.9918599724769592,0.1295640021562576,-1.0674999952316284,-3.3949999809265137,1.5049999952316284
8.301687603952622,-0.0036599999293684,-0.9862479567527772,0.1349319964647293,-0.9975000023841858,-3.6575000286102295,1.4350000619888306
8.321985128656664,-0.0007319999858736,-0.9842959642410278,0.1385920047760009,-1.0674999952316284,-3.587500095367432,1.3125
8.342282653360705,0.0029279999434947,-0.9847840070724488,0.1407880038022995,-1.3825000524520874,-3.1675000190734863,1.3125
8.362580178064746,0.0075639998540282,-0.9952759742736816,0.1405439972877502,-1.715000033378601,-2.5899999141693115,1.2949999570846558
8.382877702768788,0.0043919999152421,-0.9952759742736816,0.1422519981861114,-1.347499966621399,-1.8550000190734863,1.4350000619888306
8.403175227472829,0.0036599999293684,-0.9994239807128906,0.143227994441986,-1.0149999856948853,-1.5750000476837158,1.0850000381469729
8.42347275217687,0.0014639999717473,-1.000643968582153,0.1400559991598129,-0.5249999761581421,-1.2949999570846558,0.4550000131130218
8.443770276880912,-0.0041479999199509,-1.0035719871520996,0.13298000395298,0.1574999988079071,-0.9100000262260436,-0.262499988079071
8.464067801584953,0.0002439999952912,-1.0003999471664429,0.1373720020055771,0.875,-0.6650000214576721,-0.6825000047683716
8.484365326288994,0.0004879999905824,-0.9977160096168518,0.1420079916715622,1.5049999952316284,-0.1400000005960464,-0.7175000309944153
8.504662850993036,-0.0007319999858736,-0.9933239817619324,0.1437159925699234,2.380000114440918,-0.0350000001490116,-0.7875000238418579
8.524960375697077,0.0036599999293684,-0.990395963191986,0.1398119926452636,2.887500047683716,0.1574999988079071,-0.9800000190734864
8.545257900401118,0.0097599998116493,-0.987223982810974,0.1363959908485412,2.8350000381469727,0.5600000023841858,-1.2949999570846558
8.56555542510516,0.0131759997457265,-0.9852719902992249,0.134443998336792,2.2925000190734863,0.9275000095367432,-1.6974999904632568
8.585852949809201,0.0151279997080564,-0.9877119660377502,0.1349319964647293,1.9424999952316284,1.5225000381469729,-2.327500104904175
8.606150474513242,0.0175679996609687,-0.9911279678344728,0.1310279965400695,1.399999976158142,2.380000114440918,-2.677500009536743
8.626447999217284,0.0178119987249374,-0.9916160106658936,0.1276119947433471,0.962499976158142,3.255000114440918,-2.870000123977661
8.646745523921325,0.020983999595046,-0.9967399835586548,0.1215119957923889,1.0325000286102295,3.7100000381469727,-3.3600001335144043
8.667043048625366,0.0190319996327161,-0.9974719882011414,0.1229759976267814,1.2424999475479126,4.707499980926514,-3.3600001335144043
8.687340573329408,0.0153719997033476,-0.9950319528579712,0.1224879994988441,1.5750000476837158,6.300000190734863,-3.1675000190734863
8.70763809803345,0.0097599998116493,-0.9945439696311952,0.124439999461174,1.4524999856948853,6.877500057220459,-2.677500009536743
8.72793562273749,0.0073199998587369,-0.9933239817619324,0.1237079948186874,1.399999976158142,7.157500267028809,-2.2225000858306885
8.748233147441532,0.0043919999152421,-0.990395963191986,0.1256600022315979,1.3300000429153442,7.525000095367432,-1.75
8.768530672145573,0.0036599999293684,-0.9874680042266846,0.1283439993858337,0.9449999928474426,7.840000152587891,-1.5399999618530271
8.788828196849614,0.006343999877572,-0.987223982810974,0.1271239966154098,0.3849999904632568,8.032500267028809,-1.5225000381469729
8.809125721553656,0.0070759998634457,-0.9882000088691713,0.1261480003595352,-0.3849999904632568,8.260000228881836,-1.6974999904632568
8.829423246257697,0.0068319998681545,-0.9882000088691713,0.1266359984874725,-0.8924999833106995,8.34749984741211,-1.9075000286102293
8.849720770961738,0.0056119998916983,-0.987223982810974,0.1298079937696457,-1.2949999570846558,8.487500190734863,-2.2225000858306885
8.87001829566578,0.0082959998399019,-0.9889319539070128,0.1295640021562576,-1.5924999713897705,8.172499656677246,-2.484999895095825
8.890315820369821,0.0100039998069405,-0.9889319539070128,0.1285879909992218,-1.75,7.945000171661377,-2.747499942779541
8.910613345073862,0.010491999797523,-0.9845399856567384,0.1280999928712844,-1.837499976158142,7.699999809265137,-3.3600001335144043
8.930910869777904,0.0153719997033476,-0.9828319549560548,0.1256600022315979,-2.1700000762939453,7.595000267028809,-4.007500171661377
8.951208394481945,0.0307439994066953,-0.9886879920959472,0.1241960003972053,-3.325000047683716,7.525000095367432,-4.707499980926514
8.971505919185986,0.0380639992654323,-0.9918599724769592,0.1259039938449859,-4.619999885559082,8.154999732971191,-4.847499847412109
8.991803443890028,0.0407480001449584,-0.9952759742736816,0.1276119947433471,-5.337500095367432,8.767499923706055,-5.057499885559082
9.01210096859407,0.0385520011186599,-0.9979599714279176,0.1283439993858337,-5.494999885559082,9.292500495910645,-5.302500247955322
9.03239849329811,0.0387960001826286,-1.0003999471664429,0.1256600022315979,-4.900000095367432,9.607500076293944,-5.6875
9.052696018002152,0.0431879982352256,-1.0028399229049685,0.1210239976644516,-3.815000057220459,9.904999732971191,-6.054999828338623
9.072993542706193,0.047580000013113,-1.002351999282837,0.1210239976644516,-2.502500057220459,10.359999656677246,-6.142499923706055
9.093291067410235,0.0483120009303092,-1.0003999471664429,0.1212679967284202,-1.627500057220459,10.6225004196167,-5.740000247955322
9.113588592114276,0.047335997223854,-0.998203992843628,0.1180959939956665,-0.9275000095367432,10.657500267028809,-5.320000171661377
9.133886116818317,0.0456280000507831,-0.998203992843628,0.1107759997248649,-0.5425000190734863,10.342499732971191,-5.267499923706055
9.154183641522359,0.0527039989829063,-0.9947879910469056,0.10589599609375,-0.5600000023841858,9.432499885559082,-5.652500152587891
9.1744811662264,0.0553879998624324,-0.9994239807128906,0.1029679998755455,-0.8050000071525574,8.172499656677246,-5.914999961853027
9.194778690930441,0.0739319995045661,-0.9821000099182128,0.1229759976267814,-0.8400000333786011,6.877500057220459,-6.369999885559082
9.215076215634483,0.0761279985308647,-0.9901520013809204,0.1246839985251426,-1.75,5.949999809265137,-6.40500020980835
9.235373740338524,0.0819839984178543,-0.9808799624443054,0.1246839985251426,-0.9449999928474426,7.105000019073486,-6.597499847412109
9.255671265042565,0.0883279964327812,-0.9830759763717652,0.1039439961314201,-0.4900000095367431,6.755000114440918,-6.877500057220459
9.275968789746607,0.1088239997625351,-0.9882000088691713,0.0883279964327812,-0.7875000238418579,4.602499961853027,-7.244999885559082
9.296266314450648,0.1110199987888336,-0.98990797996521,0.1032119989395141,-1.8550000190734863,7.4375,-6.195000171661377
9.31656383915469,0.1078479960560798,-0.9991799592971802,0.1178519949316978,-1.680000066757202,9.642499923706056,-5.512499809265137
9.33686136385873,0.1173639968037605,-1.0086959600448608,0.1207799986004829,0.0350000001490116,11.112500190734863,-5.057499885559082
9.357158888562772,0.13468798995018,-1.019919991493225,0.1173639968037605,2.047499895095825,11.182499885559082,-4.514999866485596
9.377456413266813,0.128831997513771,-1.0196759700775146,0.1132159978151321,4.900000095367432,14.105000495910645,-4.21750020980835
9.397753937970855,0.1173639968037605,-0.993079960346222,0.1127279996871948,7.244999885559082,15.907500267028809,-3.745000123977661
9.418051462674896,0.1024799942970275,-0.97599995136261,0.114436000585556,7.349999904632568,17.360000610351562,-2.765000104904175
9.438348987378937,0.0890600010752677,-0.9708759784698486,0.1178519949316978,6.807499885559082,17.622499465942383,-1.8200000524520876
9.458646512082979,0.0812520012259483,-0.986735999584198,0.1219999939203262,4.742499828338623,19.477500915527344,-0.5600000023841858
9.47894403678702,0.0753960013389587,-1.0125999450683594,0.1324919909238815,3.902499914169312,21.559999465942383,1.0149999856948853
9.499241561491061,0.0629519969224929,-1.0218719244003296,0.1385920047760009,5.652500152587891,23.292499542236328,2.8350000381469727
9.519539086195103,0.0363559983670711,-1.0133320093154907,0.1398119926452636,9.11750030517578,23.729999542236328,4.375
9.539836610899144,0.009515999816358,-0.9901520013809204,0.1459119915962219,11.8125,23.4325008392334,5.494999885559082
9.560134135603185,-0.006343999877572,-0.9769759774208068,0.1507920026779174,12.18000030517578,23.04750061035156,5.932499885559082
9.580431660307227,-0.0100039998069405,-0.9720959663391112,0.1583559960126876,11.74250030517578,22.872499465942383,5.442500114440918
9.600729185011268,-0.0175679996609687,-0.9938119649887084,0.1625040024518966,11.375,24.237499237060547,4.252500057220459
9.62102670971531,-0.0341599993407726,-1.0167479515075684,0.1803160011768341,12.355000495910645,23.450000762939453,3.9375
9.64132423441935,-0.0448959991335868,-1.0328519344329834,0.2034959942102432,14.857500076293944,23.65999984741211,4.585000038146973
9.661621759123392,-0.0507519990205764,-1.036512017250061,0.2352159917354583,18.795000076293945,22.049999237060547,5.057499885559082
9.681919283827433,-0.0265959985554218,-1.0311440229415894,0.2449759989976883,20.895000457763672,18.707500457763672,5.232500076293945
9.702216808531475,-0.002195999957621,-1.022603988647461,0.2535159885883331,21.315000534057617,20.14249992370605,5.704999923706055
9.722514333235516,0.0100039998069405,-1.0082080364227295,0.234727993607521,21.36750030517578,12.949999809265137,5.96750020980835
9.742811857939557,-0.0124439997598528,-0.9564799666404724,0.2425359934568405,21.2450008392334,7.490000247955322,6.422500133514404
9.763109382643599,-0.0253759995102882,-0.9279319643974304,0.2554679811000824,15.890000343322754,8.487500190734863,8.574999809265137
9.78340690734764,-0.0436760000884532,-0.9174399971961976,0.2659600079059601,11.392499923706056,11.637499809265137,10.237500190734863
9.803704432051681,-0.0392839983105659,-0.9135359525680542,0.2640079855918884,8.34749984741211,12.1274995803833,10.272500038146973
9.824001956755723,-0.0495319999754428,-0.9350079894065856,0.2486359924077987,9.100000381469728,9.887499809265137,9.362500190734863
9.844299481459764,-0.0644159987568855,-0.9315919876098632,0.2652280032634735,10.727499961853027,7.139999866485596,8.557499885559082
9.864597006163805,-0.0487999990582466,-0.9396439790725708,0.293531984090805,10.779999732971191,5.389999866485596,8.172499656677246
9.884894530867847,0.0048799999058246,-0.9220759868621826,0.2984119951725006,12.845000267028809,4.567500114440918,6.702499866485596
9.905192055571888,0.0883279964327812,-0.9027999639511108,0.2786479890346527,11.112500190734863,12.897500038146973,0.2975000143051147
9.92548958027593,0.0685639977455139,-0.9106079936027528,0.2796239852905273,7.420000076293945,18.059999465942383,-2.484999895095825
9.94578710497997,0.0358680002391338,-0.9176839590072632,0.2901159822940826,3.184999942779541,20.71999931335449,-4.777500152587891
9.966084629684012,-0.0017079999670386,-0.9262239933013916,0.2986559867858886,0.9449999928474426,20.825000762939453,-6.650000095367432
9.986382154388053,-0.0185439996421337,-0.93012797832489,0.3071959912776947,0.262499988079071,18.024999618530277,-8.907500267028809
10.006679679092095,-0.0253759995102882,-0.925491988658905,0.3237879872322082,0.2450000047683715,15.38249969482422,-10.86750030517578
10.026977203796136,-0.0226919986307621,-0.9196360111236572,0.3386719822883606,0.4200000166893005,14.47249984741211,-12.145000457763672
10.047274728500177,-0.0263519994914531,-0.9279319643974304,0.3440400063991546,0.3499999940395355,15.417500495910645,-12.827500343322754
10.067572253204219,-0.0090279998257756,-0.9315919876098632,0.3564839959144592,-0.0874999985098838,16.4325008392334,-12.547499656677246
10.08786977790826,0.0007319999858736,-0.9547719955444336,0.3579480051994324,-1.2949999570846558,19.8799991607666,-11.77750015258789
10.108167302612301,0.0214719995856285,-0.982587993144989,0.3564839959144592,-1.924999952316284,20.8075008392334,-12.162500381469728
10.128464827316343,0.0231800004839897,-0.9789279699325562,0.3616079986095428,-0.332500010728836,23.887500762939453,-13.422499656677246
10.148762352020384,0.0297679994255304,-0.9376919865608216,0.3647799789905548,0.7350000143051147,28.332500457763672,-14.734999656677246
10.169059876724425,0.0134199997410178,-0.9276880025863647,0.3437959849834442,-2.327500104904175,32.602500915527344,-14.06999969482422
10.189357401428467,-0.0339160002768039,-0.9259799718856812,0.3211039900779724,-6.684999942779541,32.287498474121094,-13.49250030517578
10.209654926132508,-0.0702719986438751,-0.9562360048294068,0.3245199918746948,-13.142499923706056,29.69750022888184,-12.1274995803833
10.22995245083655,-0.0741759985685348,-0.98990797996521,0.3416000008583069,-18.270000457763672,27.405000686645508,-9.292500495910645
10.25024997554059,-0.0778359994292259,-1.029191970825195,0.3264719843864441,-19.0049991607666,26.31999969482422,-6.510000228881836
10.270547500244632,-0.0592919997870922,-1.087996006011963,0.3045119941234588,-15.364999771118164,30.030000686645508,-3.5350000858306885
10.290845024948673,-0.0819839984178543,-1.1472879648208618,0.2552239894866943,-8.837499618530273,28.94499969482422,0.1924999952316284
10.311142549652715,-0.1522559970617294,-1.2109719514846802,0.2125239968299865,-1.8899999856948853,21.752500534057617,4.829999923706055
10.331440074356756,-0.1537199914455413,-1.2307360172271729,0.1995919942855835,4.619999885559082,12.75749969482422,11.357500076293944
10.351737599060797,-0.1085800006985664,-1.132159948348999,0.2078879922628402,8.837499618530273,3.692500114440918,16.607500076293945
10.372035123764839,-0.0793000012636184,-1.0067440271377563,0.2115480005741119,6.877500057220459,-0.9975000023841858,16.344999313354492
10.39233264846888,-0.0644159987568855,-0.8627839684486389,0.2171600013971328,2.9749999046325684,-3.307500123977661,9.765000343322754
10.412630173172921,-0.0234239995479583,-0.8071519732475281,0.1898320019245147,-4.65500020980835,-5.127500057220459,-1.0149999856948853
10.432927697876963,0.0185439996421337,-0.8313080072402954,0.1510359942913055,-11.0600004196167,-8.837499618530273,-12.949999809265137
10.453225222581004,0.0422119982540607,-0.8844999670982361,0.1078479960560798,-13.842499732971191,-13.177499771118164,-22.03249931335449
10.473522747285045,0.0187879987061023,-0.8976759910583496,0.1076039969921112,-12.28499984741211,-15.225000381469728,-25.462499618530277
10.493820271989087,-0.023667998611927,-0.9274439811706544,0.0954039990901947,-15.452500343322754,-17.412500381469727,-21.174999237060547
10.514117796693128,0.0458719991147518,-1.064571976661682,0.1190719977021217,-18.44499969482422,-9.11750030517578,0.4900000095367431
10.53441532139717,0.0661239996552467,-1.0182119607925415,0.1097999960184097,-7.420000076293945,-1.1024999618530271,1.3125
10.55471284610121,0.0885719954967498,-0.986735999584198,0.0834480002522468,-0.8575000166893005,-2.309999942779541,-2.2049999237060547
10.575010370805252,0.1049199998378753,-0.9933239817619324,0.0707599967718124,-0.4025000035762787,-3.692500114440918,-6.84250020980835
10.595307895509293,0.1036999970674514,-0.9943000078201294,0.076615996658802,-1.715000033378601,-1.9774999618530276,-10.307499885559082
10.615605420213335,0.1068719998002052,-1.0016199350357056,0.075883999466896,-2.0824999809265137,-1.399999976158142,-11.899999618530272
10.635902944917376,0.1007720008492469,-0.987223982810974,0.0749079957604408,-0.0525000020861625,0.8924999833106995,-11.917500495910645
10.656200469621417,0.1036999970674514,-0.9796599745750428,0.0734440013766288,-0.2450000047683715,2.870000123977661,-11.654999732971191
10.676497994325459,0.0929640009999275,-0.9642879962921144,0.0922319963574409,0.2800000011920929,4.059999942779541,-12.162500381469728
10.6967955190295,0.0939399972558021,-0.975268006324768,0.0832040011882782,-1.3300000429153442,3.0450000762939453,-13.440000534057615
10.717093043733541,0.1000399962067604,-0.990884006023407,0.0700279995799064,-3.237499952316284,2.117500066757202,-15.154999732971191
10.737390568437583,0.0988200008869171,-1.0250439643859863,0.1024799942970275,-5.355000019073486,-1.0325000286102295,-16.799999237060547
10.757688093141624,0.0978439971804618,-1.040903925895691,0.1349319964647293,-4.340000152587891,-8.295000076293945,-18.34000015258789
10.777985617845665,0.1010159999132156,-1.032364010810852,0.1464000046253204,1.0325000286102295,-10.079999923706056,-19.82749938964844
10.798283142549707,0.085156001150608,-1.001376032829285,0.1371279954910278,6.877500057220459,-7.840000152587891,-20.3174991607666
10.818580667253748,0.0829599946737289,-0.9537959694862366,0.1378600001335144,8.470000267028809,-10.079999923706056,-19.950000762939453
10.83887819195779,0.1017479971051216,-0.9284200072288512,0.1400559991598129,4.007500171661377,-13.0024995803833,-18.88249969482422
10.85917571666183,0.1149239987134933,-0.9330559968948364,0.1449359953403473,-2.4674999713897705,-14.192500114440918,-16.99250030517578
10.879473241365872,0.1183400005102157,-0.9545279741287231,0.1581119894981384,-6.947500228881836,-15.399999618530272,-14.612500190734863
10.899770766069913,0.1185839995741844,-0.9642879962921144,0.1781200021505355,-6.615000247955322,-17.342500686645508,-13.05500030517578
10.920068290773955,0.1356640011072158,-0.9515999555587769,0.1827559918165207,-3.745000123977661,-20.42250061035156,-12.21500015258789
10.940365815477996,0.157379999756813,-0.932811975479126,0.1893439888954162,-1.1375000476837158,-19.89750099182129,-10.5
10.960663340182037,0.1654319912195205,-0.9106079936027528,0.195932000875473,-0.2100000083446502,-18.32250022888184,-6.929999828338623
10.980960864886079,0.1537199914455413,-0.904263973236084,0.2147199958562851,-1.924999952316284,-19.372499465942383,-1.75
11.00125838959012,0.1207799986004829,-0.9040200114250184,0.2415599972009658,-4.09499979019165,-21.1924991607666,3.8324999809265137
11.021555914294161,0.1227319985628128,-0.9018239974975586,0.2635200023651123,-5.547500133514404,-24.167499542236328,9.642499923706056
11.041853438998203,0.1542080044746399,-0.8874279856681824,0.2593719959259033,-5.547500133514404,-25.1299991607666,15.225000381469728
11.062150963702244,0.1805599927902221,-0.8837679624557495,0.2493679970502853,-6.615000247955322,-23.415000915527344,20.49250030517578
11.082448488406285,0.1991039961576461,-0.9137799739837646,0.2418039888143539,-8.697500228881836,-23.22249984741211,24.71000099182129
11.102746013110327,0.1964199990034103,-0.9472079873085022,0.2366800010204315,-8.837499618530273,-24.412500381469727,26.4950008392334
11.123043537814368,0.1747040003538131,-1.043344020843506,0.2669360041618347,-2.414999961853028,-28.752500534057617,21.21000099182129
11.14334106251841,0.1883679926395416,-1.046515941619873,0.281819999217987,4.724999904632568,-31.95499992370605,17.412500381469727
11.16363858722245,0.2012999951839447,-1.0172359943389893,0.2808440029621124,8.34749984741211,-37.04750061035156,14.682499885559082
11.183936111926492,0.2095959931612014,-1.0043039321899414,0.2479040026664734,8.154999732971191,-42.157501220703125,12.75749969482422
11.204233636630534,0.1973959952592849,-1.0438319444656372,0.1820240020751953,6.264999866485596,-45.04500198364258,11.270000457763672
11.224531161334575,0.1908079981803894,-1.1060519218444824,0.0675880014896392,3.3424999713897705,-46.65499877929688,9.397500038146973
11.244828686038616,0.1290760040283203,-1.223904013633728,0.0114679997786879,-2.992500066757202,-39.532501220703125,4.322500228881836
11.265126210742658,0.0675880014896392,-1.3395600318908691,0.0656360015273094,-8.207500457763672,-33.25,-6.317500114440918
11.285423735446699,0.1595759987831115,-1.3634719848632812,0.0712479948997497,-5.197500228881836,-35.47249984741211,-20.70249938964844
11.30572126015074,0.1991039961576461,-1.279780030250549,0.037331998348236,4.882500171661377,-20.49250030517578,-24.045000076293945
11.326018784854782,0.2027639895677566,-1.1436280012130735,-0.0392839983105659,18.74250030517578,-14.524999618530272,-9.835000038146973
11.346316309558823,0.1205359995365142,-0.9720959663391112,-0.0507519990205764,30.65999984741211,-2.380000114440918,9.835000038146973
11.366613834262864,0.0029279999434947,-0.826915979385376,-0.0068319998681545,35.4375,4.602499961853027,24.342500686645508
11.386911358966906,-0.0749079957604408,-0.7483479976654053,0.0280600003898143,31.7450008392334,3.849999904632568,31.989999771118164
11.407208883670947,-0.1212679967284202,-0.7254120111465454,0.0226919986307621,25.497499465942383,14.350000381469728,33.442501068115234
11.427506408374988,-0.1378600001335144,-0.7585960030555725,0.0588039979338645,14.752500534057615,19.25,29.88999938964844
11.44780393307903,-0.0961359962821006,-0.8659560084342957,0.0414799973368644,-1.3650000095367432,21.927499771118164,22.32999992370605
11.46810145778307,-0.0607559978961944,-0.9935680031776428,0.0939399972558021,-11.44499969482422,19.75749969482422,13.720000267028809
11.488398982487112,-0.0148839997127652,-1.0992200374603271,0.118827998638153,-16.677499771118164,12.65250015258789,12.355000495910645
11.508696507191154,-0.0051239999011158,-1.1287440061569214,0.1778759956359863,-13.772500038146973,12.477499961853027,14.385000228881836
11.528994031895195,-0.0270840004086494,-1.1319159269332886,0.1761679947376251,-7.612500190734863,14.699999809265137,16.520000457763672
11.549291556599236,-0.0956479981541633,-1.1150799989700315,0.1754359900951385,1.715000033378601,16.905000686645508,17.780000686645508
11.569589081303278,-0.1586000025272369,-1.06359601020813,0.153231993317604,12.337499618530272,9.397500038146973,18.1825008392334
11.589886606007319,-0.1554279923439026,-0.982587993144989,0.152988001704216,20.877500534057617,2.362499952316284,16.8174991607666
11.61018413071136,-0.1376159936189651,-0.9147560000419616,0.1378600001335144,24.587499618530277,3.692500114440918,15.452500343322754
11.630481655415402,-0.1107759997248649,-0.8305760025978088,0.1105320006608963,20.3174991607666,5.617499828338623,16.729999542236328
11.650779180119443,-0.0773480013012886,-0.7798239588737488,0.1166319996118545,6.545000076293945,3.569999933242798,18.427499771118164
11.671076704823484,-0.0480679981410503,-0.7861679792404175,0.1307840049266815,-8.819999694824219,5.512499809265137,17.377500534057617
11.691374229527526,-0.0190319996327161,-0.8222799897193909,0.1568920016288757,-19.61750030517578,9.0649995803833,12.845000267028809
11.711671754231567,-0.0207399986684322,-0.9108519554138184,0.1671399921178817,-26.739999771118164,10.324999809265137,6.702499866485596
11.731969278935608,-0.0885719954967498,-1.1345999240875244,0.1742160022258758,-26.61750030517578,6.667500019073486,-2.309999942779541
11.75226680363965,-0.0214719995856285,-1.1550959348678589,0.1629920005798339,-15.364999771118164,7.892499923706055,-5.127500057220459
11.772564328343691,0.0324519984424114,-1.1048319339752195,0.1637239903211593,2.1700000762939453,2.765000104904175,-9.852499961853027
11.792861853047732,-0.0100039998069405,-1.0762839317321775,0.171775996685028,13.737500190734863,7.017499923706055,-11.602499961853027
11.813159377751774,-0.0307439994066953,-0.9823439717292786,0.2081319987773895,16.344999313354492,7.71750020980835,-9.135000228881836
11.833456902455815,0.0007319999858736,-0.891819953918457,0.1922719925642013,10.114999771118164,13.369999885559082,-6.195000171661377
11.853754427159856,-0.0253759995102882,-0.859611988067627,0.1681160032749176,4.619999885559082,18.53249931335449,-5.337500095367432
11.874051951863898,-0.0273279994726181,-0.8935279846191406,0.1605519950389862,-4.462500095367432,20.52750015258789,-4.917500019073486
11.894349476567939,-0.0129319997504353,-0.9396439790725708,0.1615279912948608,-10.02750015258789,19.21500015258789,-7.28000020980835
11.91464700127198,-0.006343999877572,-1.0033279657363892,0.1493279933929443,-9.765000343322754,15.364999771118164,-12.039999961853027
11.934944525976022,0.0114679997786879,-1.0421240329742432,0.1307840049266815,-6.177500247955322,12.547499656677246,-15.78499984741211
11.955242050680063,0.0275719985365867,-1.0411479473114014,0.1117519959807396,-1.6974999904632568,13.614999771118164,-16.8700008392334
11.975539575384104,0.028303999453783,-1.0089399814605713,0.0941839963197708,3.0975000858306885,17.325000762939453,-17.342500686645508
11.995837100088146,-0.0034159999340772,-0.9969840049743652,0.0810080021619796,4.760000228881836,22.17250061035156,-17.815000534057617
12.016134624792187,-0.0412359982728958,-1.0152839422225952,0.0695400014519691,2.747499942779541,22.69750022888184,-16.3799991607666
12.036432149496228,-0.0480679981410503,-0.9945439696311952,0.0736880004405975,-0.3149999976158142,18.899999618530277,-12.8100004196167
12.05672967420027,-0.0261080004274845,-1.014796018600464,0.0895479992032051,-4.550000190734863,17.202499389648438,-8.662500381469727
12.077027198904311,0.0222040005028247,-1.0274839401245115,0.1134599968791008,-4.462500095367432,18.462499618530277,-5.722499847412109
12.097324723608352,0.0541680008172988,-1.0089399814605713,0.1239520013332367,-1.6100000143051147,19.84499931335449,-5.302500247955322
12.117622248312394,0.0629519969224929,-0.9913719892501832,0.1171199977397918,1.3650000095367432,20.229999542236328,-7.192500114440918
12.137919773016435,0.0578279979526996,-0.9781959652900696,0.1049199998378753,3.7100000381469727,19.63500022888184,-10.114999771118164
12.158217297720476,0.0339160002768039,-0.9703879952430724,0.095160000026226,3.762500047683716,20.002500534057617,-11.9350004196167
12.178514822424518,0.0087839998304843,-0.9667279720306396,0.0888160020112991,1.4874999523162842,20.15999984741211,-12.442500114440918
12.198812347128559,0.0004879999905824,-0.9703879952430724,0.0812520012259483,-2.887500047683716,20.33500099182129,-11.864999771118164
12.2191098718326,-0.0017079999670386,-0.9835639595985411,0.0854000002145767,-7.175000190734863,19.354999542236328,-10.46500015258789
12.239407396536642,0.0024399999529123,-1.004547953605652,0.0871080011129379,-9.730000495910645,18.200000762939453,-8.329999923706055
12.259704921240683,-0.0004879999905824,-1.024799942970276,0.0978439971804618,-8.890000343322754,18.725000381469727,-6.615000247955322
12.280002445944724,0.0007319999858736,-1.0277279615402222,0.1068719998002052,-5.179999828338623,16.327499389648438,-5.704999923706055
12.300299970648766,0.0019519999623298,-1.0223599672317505,0.110287994146347,-1.8550000190734863,13.125,-5.337500095367432
12.320597495352807,0.0043919999152421,-1.0055240392684937,0.1085800006985664,-0.5600000023841858,10.832500457763672,-5.022500038146973
12.340895020056848,0.0175679996609687,-0.9813680052757264,0.110287994146347,-3.0274999141693115,6.422500133514404,-3.255000114440918
12.36119254476089,0.0197639986872673,-0.9830759763717652,0.1124840006232261,-3.640000104904175,5.09250020980835,-2.5899999141693115
12.381490069464931,0.0192760005593299,-0.9894199967384338,0.1110199987888336,-3.7100000381469727,3.3949999809265137,-1.784999966621399
12.401787594168972,0.0222040005028247,-0.9967399835586548,0.1068719998002052,-3.674999952316284,1.1549999713897705,-0.7699999809265137
12.422085118873014,0.0248879995197057,-0.9996680021286012,0.1080919951200485,-3.569999933242798,-0.1749999970197677,-0.1050000041723251
12.442382643577055,0.0280600003898143,-0.9996680021286012,0.1154119968414306,-3.430000066757202,-1.1375000476837158,0.1225000023841857
12.462680168281096,0.0287919994443655,-1.0011320114135742,0.115167997777462,-3.132499933242798,-1.8899999856948853,0.1749999970197677
12.482977692985138,0.0319640003144741,-0.9994239807128906,0.1141919940710067,-2.6424999237060547,-2.625,0.2275000065565109
12.503275217689179,0.0397720001637935,-0.994055986404419,0.115167997777462,-2.275000095367432,-3.692500114440918,0.3675000071525574
12.52357274239322,0.0490439981222152,-0.993079960346222,0.1168759986758232,-2.625,-4.21750020980835,0.7699999809265137
12.543870267097262,0.0497759990394115,-0.9938119649887084,0.119559995830059,-2.9574999809265137,-4.287499904632568,1.1549999713897705
12.564167791801303,0.0485559999942779,-0.9960079789161682,0.1217559948563575,-2.712500095367432,-4.462500095367432,1.1725000143051147
12.584465316505344,0.0461159981787204,-1.0011320114135742,0.1219999939203262,-2.047499895095825,-4.777500152587891,1.0149999856948853
12.604762841209386,0.0461159981787204,-1.0072319507598877,0.1215119957923889,-1.5399999618530271,-5.162499904632568,1.0850000381469729
12.625060365913427,0.0456280000507831,-1.0040600299835205,0.1202920004725456,-0.9800000190734864,-5.372499942779541,1.1375000476837158
12.645357890617468,0.0463600009679794,-0.9979599714279176,0.1207799986004829,-0.6299999952316284,-5.757500171661377,1.1549999713897705
12.66565541532151,0.047580000013113,-0.9935680031776428,0.1256600022315979,-0.7699999809265137,-6.159999847412109,1.347499966621399
12.685952940025551,0.0490439981222152,-0.9928359985351562,0.1261480003595352,-0.7875000238418579,-6.317500114440918,1.6449999809265137
12.706250464729592,0.0502640008926391,-0.9911279678344728,0.1239520013332367,-0.5600000023841858,-6.474999904632568,1.8725000619888303
12.726547989433634,0.0502640008926391,-0.9886879920959472,0.1234639957547187,-0.4900000095367431,-6.877500057220459,2.1524999141693115
12.746845514137675,0.0490439981222152,-0.9901520013809204,0.1234639957547187,-0.5425000190734863,-6.947500228881836,2.327500104904175
12.767143038841716,0.047335997223854,-0.9918599724769592,0.1246839985251426,-0.7524999976158142,-7.017499923706055,2.3975000381469727
12.787440563545758,0.047580000013113,-0.9962520003318788,0.1219999939203262,-0.8224999904632568,-7.385000228881836,2.2925000190734863
12.807738088249799,0.0485559999942779,-0.9984479546546936,0.1207799986004829,-0.5774999856948853,-7.244999885559082,2.117500066757202
12.82803561295384,0.0487999990582466,-1.0033279657363892,0.1198039948940277,-0.2975000143051147,-7.28000020980835,2.047499895095825
12.848333137657882,0.047335997223854,-1.0021079778671265,0.1215119957923889,0.2275000065565109,-7.244999885559082,1.9774999618530276
12.868630662361923,0.0487999990582466,-1.000643968582153,0.118827998638153,0.7875000238418579,-7.139999866485596,1.6974999904632568
12.888928187065964,0.0500199981033802,-0.9984479546546936,0.1168759986758232,1.3650000095367432,-6.650000095367432,1.5575000047683716
12.909225711770006,0.0509959980845451,-0.9928359985351562,0.1166319996118545,1.7324999570846558,-6.28249979019165,1.6100000143051147
12.929523236474047,0.047580000013113,-0.9918599724769592,0.1161440014839172,1.5575000047683716,-5.792500019073486,1.6974999904632568
12.949820761178088,0.0417240001261234,-0.9916160106658936,0.1171199977397918,1.0674999952316284,-5.127500057220459,1.75
12.97011828588213,0.0412359982728958,-0.9935680031776428,0.1176079958677291,1.0149999856948853,-4.865000247955322,1.662500023841858
12.990415810586171,0.0397720001637935,-0.9952759742736816,0.1200480014085769,1.0499999523162842,-4.690000057220459,1.5225000381469729
13.010713335290212,0.0395279973745346,-0.9957639575004578,0.1185839995741844,1.1375000476837158,-4.497499942779541,1.4874999523162842
13.031010859994254,0.0392839983105659,-0.998203992843628,0.1183400005102157,1.0850000381469729,-4.287499904632568,1.4874999523162842
13.051308384698295,0.0361119993031024,-0.9999119639396667,0.1190719977021217,1.2424999475479126,-4.21750020980835,1.4700000286102295
13.071605909402336,0.0334279984235763,-0.9994239807128906,0.1202920004725456,1.5575000047683716,-4.357500076293945,1.4350000619888306
13.091903434106378,0.0270840004086494,-0.9994239807128906,0.1212679967284202,1.995000004768372,-4.514999866485596,1.3825000524520874
13.11220095881042,0.0280600003898143,-0.9957639575004578,0.1212679967284202,2.4674999713897705,-4.742499828338623,1.225000023841858
13.13249848351446,0.0297679994255304,-0.9935680031776428,0.1219999939203262,2.6424999237060547,-4.847499847412109,1.0499999523162842
13.152796008218502,0.0307439994066953,-0.993079960346222,0.1222440004348754,2.694999933242798,-4.882500171661377,1.0325000286102295
13.173093532922543,0.0324519984424114,-0.993079960346222,0.1237079948186874,2.432500123977661,-4.934999942779541,1.0149999856948853
13.193391057626584,0.0322079993784427,-0.994055986404419,0.1227319985628128,2.3975000381469727,-4.900000095367432,1.0499999523162842
13.213688582330626,0.032940000295639,-0.9943000078201294,0.1261480003595352,2.555000066757202,-4.829999923706055,1.1024999618530271
13.233986107034667,0.0341599993407726,-0.994055986404419,0.1254159957170486,2.5899999141693115,-4.602499961853027,1.1725000143051147
13.254283631738708,0.0351359993219375,-0.994055986404419,0.1241960003972053,2.572499990463257,-4.392499923706055,1.1549999713897705
13.27458115644275,0.0348920002579689,-0.9916160106658936,0.1241960003972053,2.5199999809265137,-4.130000114440918,1.0325000286102295
13.294878681146791,0.0361119993031024,-0.9923479557037354,0.1249279975891113,2.362499952316284,-3.640000104904175,0.875
13.315176205850833,0.037331998348236,-0.993079960346222,0.1268799901008606,2.3975000381469727,-3.289999961853028,0.6650000214576721
13.335473730554874,0.0402599982917308,-0.9923479557037354,0.1276119947433471,2.7300000190734863,-2.940000057220459,0.4025000035762787
13.355771255258915,0.042943999171257,-0.9906399846076964,0.1295640021562576,2.9049999713897705,-2.484999895095825,0.3499999940395355
13.376068779962957,0.0434319972991943,-0.9884439706802368,0.1324919909238815,2.887500047683716,-1.8200000524520876,0.332500010728836
13.396366304666998,0.041967999190092,-0.98990797996521,0.13468798995018,2.625,-1.2424999475479126,0.4724999964237213
13.41666382937104,0.0434319972991943,-0.9933239817619324,0.1351760029792785,2.3975000381469727,-0.7875000238418579,0.6650000214576721
13.43696135407508,0.0380639992654323,-0.9935680031776428,0.1349319964647293,2.240000009536743,-0.3499999940395355,0.7875000238418579
13.457258878779122,0.0353799983859062,-0.995519995689392,0.134443998336792,1.8725000619888303,-0.2100000083446502,0.5600000023841858
13.477556403483163,0.032940000295639,-0.9972279667854308,0.1324919909238815,1.7675000429153442,-0.4375,0.1400000005960464
13.497853928187205,0.0290360003709793,-0.9964959621429444,0.13298000395298,1.995000004768372,-0.5774999856948853,-0.1574999988079071
13.518151452891246,0.023667998611927,-0.9935680031776428,0.134443998336792,2.0824999809265137,-0.9275000095367432,-0.1749999970197677
13.538448977595287,0.0207399986684322,-0.9913719892501832,0.1354199945926666,1.9075000286102293,-1.5750000476837158,-0.0874999985098838
13.558746502299329,0.0151279997080564,-0.9913719892501832,0.1376159936189651,1.8025000095367432,-3.150000095367432,0.4025000035762787
13.57904402700337,0.0114679997786879,-0.987223982810974,0.1390800029039383,1.9600000381469729,-3.954999923706055,0.8050000071525574
13.599341551707411,0.0100039998069405,-0.9874680042266846,0.1427399963140487,1.627500057220459,-5.110000133514404,1.399999976158142
13.619639076411453,0.0065879998728632,-0.9896639585494996,0.1366399973630905,1.2074999809265137,-6.230000019073486,1.7324999570846558
13.639936601115494,0.0051239999011158,-0.9918599724769592,0.1383479982614517,0.962499976158142,-7.122499942779541,1.8899999856948853
13.660234125819535,0.0039039999246597,-0.990884006023407,0.1434720009565353,1.0499999523162842,-8.067500114440918,1.8899999856948853
13.680531650523577,0.0060999998822808,-0.9945439696311952,0.1478639990091323,1.0499999523162842,-9.239999771118164,1.924999952316284
13.700829175227618,0.0073199998587369,-1.0016199350357056,0.1481079906225204,1.3825000524520874,-10.202500343322754,2.0999999046325684
13.72112669993166,0.0075639998540282,-1.000643968582153,0.1485960036516189,2.117500066757202,-10.97249984741211,2.345000028610229
13.7414242246357,0.0080519998446106,-0.9943000078201294,0.1481079906225204,3.0450000762939453,-11.74250030517578,2.432500123977661
13.761721749339742,0.0087839998304843,-0.987223982810974,0.1483519971370697,3.745000123977661,-12.442500114440918,2.362499952316284
13.782019274043783,0.0075639998540282,-0.9855159521102904,0.1471319943666458,3.8324999809265137,-12.8100004196167,2.432500123977661
13.802316798747825,0.0165919996798038,-0.9864919781684875,0.1481079906225204,3.3424999713897705,-12.547499656677246,2.799999952316284
13.822614323451866,0.0268399994820356,-0.9886879920959472,0.1510359942913055,2.362499952316284,-12.057499885559082,3.4649999141693115
13.842911848155907,0.0358680002391338,-0.9874680042266846,0.1500599980354309,1.784999966621399,-11.567500114440918,3.920000076293945
13.863209372859949,0.0363559983670711,-0.9835639595985411,0.1466439962387085,1.837499976158142,-10.850000381469728,3.8324999809265137
13.88350689756399,0.0341599993407726,-0.9845399856567384,0.1485960036516189,2.134999990463257,-10.149999618530272,3.4825000762939453
13.903804422268031,0.0326960012316703,-0.985759973526001,0.1525000035762787,2.117500066757202,-9.362500190734863,3.0975000858306885
13.924101946972073,0.0341599993407726,-0.9884439706802368,0.1564040035009384,1.399999976158142,-8.609999656677246,3.307500123977661
13.944399471676114,0.0331839993596077,-0.9972279667854308,0.1542080044746399,0.7350000143051147,-7.909999847412109,3.447499990463257
13.964696996380155,0.0302559994161129,-0.9962520003318788,0.1546960026025772,0.962499976158142,-7.507500171661377,3.0625
13.984994521084197,0.0348920002579689,-0.9943000078201294,0.1556719988584518,1.4350000619888306,-7.402500152587891,2.6600000858306885
14.005292045788238,0.0356239974498748,-0.990884006023407,0.1554279923439026,1.9424999952316284,-7.244999885559082,2.2049999237060547
14.02558957049228,0.033671997487545,-0.9889319539070128,0.1578679978847503,2.012500047683716,-7.070000171661377,1.9424999952316284
14.04588709519632,0.0270840004086494,-0.9840520024299622,0.1629920005798339,1.3825000524520874,-6.684999942779541,1.9424999952316284
14.066184619900362,0.023667998611927,-0.9889319539070128,0.1634799987077713,0.8050000071525574,-6.824999809265137,1.784999966621399
14.086482144604403,0.0243999995291233,-0.990884006023407,0.1644559949636459,1.1200000047683716,-7.052500247955322,1.7324999570846558
14.106779669308445,0.0239119995385408,-0.9916160106658936,0.1617719978094101,1.7675000429153442,-7.332499980926514,1.75
14.127077194012486,0.0270840004086494,-0.9911279678344728,0.1622599959373474,2.327500104904175,-7.210000038146973,1.6100000143051147
14.147374718716527,0.0297679994255304,-0.9918599724769592,0.1612839996814727,2.275000095367432,-6.824999809265137,1.4700000286102295
14.167672243420569,0.0253759995102882,-0.9913719892501832,0.1639679968357086,1.8200000524520876,-5.949999809265137,0.962499976158142
14.18796976812461,0.0273279994726181,-0.9938119649887084,0.1642120033502578,1.9600000381469729,-6.037499904632568,0.7524999976158142
14.208267292828651,0.0246439985930919,-0.9896639585494996,0.1656759977340698,2.5899999141693115,-6.002500057220459,0.699999988079071
14.228564817532693,0.0256199985742568,-0.9874680042266846,0.1664080023765564,2.712500095367432,-5.635000228881836,0.4550000131130218
14.248862342236734,0.0268399994820356,-0.9833199977874756,0.1642120033502578,2.677500009536743,-5.320000171661377,0.2800000011920929
14.269159866940775,0.0302559994161129,-0.9799039959907532,0.1681160032749176,2.0299999713897705,-4.829999923706055,0.2275000065565109
14.289457391644817,0.0341599993407726,-0.9808799624443054,0.1693359911441803,1.277500033378601,-4.409999847412109,0.2800000011920929
14.309754916348858,0.0339160002768039,-0.9835639595985411,0.1666519939899444,0.8224999904632568,-3.640000104904175,0.2450000047683715
14.3300524410529,0.0348920002579689,-0.9877119660377502,0.1649439930915832,0.4724999964237213,-3.115000009536743,0.2975000143051147
14.35034996575694,0.0348920002579689,-0.9894199967384338,0.1639679968357086,0.5249999761581421,-2.432500123977661,0.1924999952316284
14.370647490460982,0.033671997487545,-0.9918599724769592,0.1642120033502578,0.8050000071525574,-1.7675000429153442,0.0350000001490116
14.390945015165023,0.033671997487545,-0.9960079789161682,0.1644559949636459,1.0850000381469729,-1.277500033378601,-0.0350000001490116
14.411242539869065,0.0295239984989166,-0.9938119649887084,0.1620160043239593,1.5225000381469729,-0.8575000166893005,-0.1574999988079071
14.431540064573106,0.0273279994726181,-0.990395963191986,0.1603080034255981,1.9424999952316284,-0.4900000095367431,-0.4724999964237213
14.451837589277147,0.0265959985554218,-0.9862479567527772,0.1578679978847503,2.117500066757202,0.0175000000745058,-0.7175000309944153
14.472135113981189,0.0261080004274845,-0.9840520024299622,0.1620160043239593,1.8899999856948853,0.4200000166893005,-0.6825000047683716
14.49243263868523,0.0251320004463195,-0.9847840070724488,0.1620160043239593,1.2424999475479126,0.7699999809265137,-0.7350000143051147
14.512730163389271,0.0261080004274845,-0.9879559874534608,0.1625040024518966,0.7524999976158142,0.7350000143051147,-0.7699999809265137
14.533027688093313,0.0261080004274845,-0.9889319539070128,0.1603080034255981,0.7875000238418579,0.9100000262260436,-0.699999988079071
14.553325212797354,0.0256199985742568,-0.9882000088691713,0.1593319922685623,0.9800000190734864,0.8924999833106995,-0.7350000143051147
14.573622737501395,0.0248879995197057,-0.9845399856567384,0.1625040024518966,0.8050000071525574,0.7175000309944153,-0.7699999809265137
14.593920262205437,0.0251320004463195,-0.9821000099182128,0.1634799987077713,0.3499999940395355,0.6825000047683716,-0.7350000143051147
14.614217786909478,0.0278159994632005,-0.9840520024299622,0.1634799987077713,-0.2100000083446502,0.7175000309944153,-0.5600000023841858
14.63451531161352,0.0268399994820356,-0.9879559874534608,0.1627479940652847,-0.5600000023841858,1.2074999809265137,-0.4724999964237213
14.65481283631756,0.028303999453783,-0.9886879920959472,0.1620160043239593,-0.6650000214576721,1.225000023841858,-0.4550000131130218
14.675110361021602,0.0302559994161129,-0.9894199967384338,0.1637239903211593,-0.5074999928474426,1.277500033378601,-0.5425000190734863
14.695407885725643,0.0292799994349479,-0.9879559874534608,0.1637239903211593,-0.3499999940395355,1.399999976158142,-0.6825000047683716
14.715705410429685,0.028303999453783,-0.9884439706802368,0.1649439930915832,-0.3849999904632568,1.715000033378601,-0.7175000309944153
14.736002935133726,0.0278159994632005,-0.9874680042266846,0.1661639958620071,-0.332500010728836,2.0999999046325684,-0.6650000214576721
14.756300459837767,0.0314759984612464,-0.9860039949417114,0.1668960005044937,-0.3675000071525574,2.484999895095825,-0.5249999761581421
14.776597984541809,0.0297679994255304,-0.987223982810974,0.1671399921178817,-0.5074999928474426,2.8350000381469727,-0.4550000131130218
14.79689550924585,0.0243999995291233,-0.98990797996521,0.1668960005044937,-0.4900000095367431,2.9049999713897705,-0.5249999761581421
14.817193033949891,0.0226919986307621,-0.990884006023407,0.1678719967603683,-0.4025000035762787,3.0450000762939453,-0.5950000286102295
14.837490558653933,0.0241560004651546,-0.993079960346222,0.1681160032749176,-0.1924999952316284,3.009999990463257,-0.6474999785423279
14.857788083357974,0.0243999995291233,-0.9933239817619324,0.1661639958620071,0.2800000011920929,2.992500066757202,-0.7350000143051147
14.878085608062015,0.0253759995102882,-0.9925919771194458,0.1661639958620071,1.0325000286102295,2.8350000381469727,-0.8224999904632568
14.898383132766057,0.0256199985742568,-0.9886879920959472,0.167383998632431,1.3650000095367432,2.694999933242798,-0.8400000333786011
14.918680657470098,0.0246439985930919,-0.9864919781684875,0.167383998632431,0.9975000023841858,2.694999933242798,-0.7875000238418579
14.93897818217414,0.0222040005028247,-0.9862479567527772,0.1649439930915832,0.4900000095367431,2.7300000190734863,-0.7699999809265137
14.95927570687818,0.020983999595046,-0.9884439706802368,0.1637239903211593,0.3849999904632568,2.625,-0.8224999904632568
14.979573231582222,0.0202520005404949,-0.9877119660377502,0.1637239903211593,0.6650000214576721,2.275000095367432,-0.8050000071525574
14.999870756286263,0.0204959996044635,-0.9850279688835144,0.1634799987077713,0.9275000095367432,2.012500047683716,-0.8050000071525574
15.020168280990305,0.0222040005028247,-0.9847840070724488,0.1612839996814727,0.7524999976158142,1.8550000190734863,-0.8050000071525574
15.040465805694346,0.0204959996044635,-0.9847840070724488,0.1566479951143264,0.4724999964237213,1.9075000286102293,-0.6825000047683716
15.060763330398387,0.0200079996138811,-0.9855159521102904,0.1576239913702011,0.1574999988079071,2.0824999809265137,-0.4900000095367431
15.081060855102429,0.0192760005593299,-0.9896639585494996,0.1586000025272369,-0.262499988079071,2.327500104904175,-0.1924999952316284
15.10135837980647,0.0185439996421337,-0.9923479557037354,0.1595759987831115,-0.4375,2.2925000190734863,0.0700000002980232
15.121655904510511,0.0197639986872673,-0.9947879910469056,0.1583559960126876,-0.2800000011920929,2.1524999141693115,0.0874999985098838
15.141953429214553,0.0187879987061023,-0.9933239817619324,0.1576239913702011,0.2100000083446502,1.9774999618530276,-0.1574999988079071
15.162250953918594,0.0195199996232986,-0.9891759753227234,0.1583559960126876,0.5249999761581421,1.784999966621399,-0.4200000166893005
15.182548478622635,0.0195199996232986,-0.9877119660377502,0.1568920016288757,0.4200000166893005,1.8550000190734863,-0.5074999928474426
15.202846003326677,0.0200079996138811,-0.9874680042266846,0.1578679978847503,0.2100000083446502,2.047499895095825,-0.4900000095367431
15.223143528030718,0.018300000578165,-0.9889319539070128,0.1590880006551742,-0.1225000023841857,2.047499895095825,-0.3149999976158142
15.24344105273476,0.0192760005593299,-0.9894199967384338,0.1603080034255981,-0.2275000065565109,1.9075000286102293,-0.2100000083446502
15.2637385774388,0.0197639986872673,-0.9889319539070128,0.1576239913702011,-0.1225000023841857,1.627500057220459,-0.2100000083446502
15.284036102142842,0.0204959996044635,-0.9864919781684875,0.1583559960126876,-0.0350000001490116,1.662500023841858,-0.3149999976158142
15.304333626846883,0.0217159986495971,-0.9877119660377502,0.1600639969110489,-0.332500010728836,1.7324999570846558,-0.2450000047683715
15.324631151550925,0.0214719995856285,-0.9891759753227234,0.1607960015535354,-0.6474999785423279,1.627500057220459,-0.1225000023841857
15.344928676254966,0.0204959996044635,-0.9923479557037354,0.1603080034255981,-0.5600000023841858,1.4175000190734863,-0.0350000001490116
15.365226200959007,0.0219599995762109,-0.9918599724769592,0.1615279912948608,-0.1400000005960464,1.2074999809265137,-0.0525000020861625
15.385523725663049,0.0207399986684322,-0.9877119660377502,0.1610399931669235,-0.0700000002980232,0.9975000023841858,-0.0874999985098838
15.40582125036709,0.0200079996138811,-0.9884439706802368,0.1581119894981384,-0.3149999976158142,0.9800000190734864,-0.0525000020861625
15.426118775071131,0.0192760005593299,-0.9911279678344728,0.1603080034255981,-0.3849999904632568,1.0149999856948853,-0.0350000001490116
15.446416299775173,0.0204959996044635,-0.990884006023407,0.1610399931669235,-0.2975000143051147,0.9800000190734864,-0.0874999985098838
15.466713824479214,0.0226919986307621,-0.9894199967384338,0.1603080034255981,-0.0175000000745058,0.9449999928474426,-0.2100000083446502
15.487011349183256,0.0222040005028247,-0.9889319539070128,0.1603080034255981,0.1574999988079071,0.8924999833106995,-0.332500010728836
15.507308873887297,0.0224479995667934,-0.9901520013809204,0.1603080034255981,0.2275000065565109,0.9100000262260436,-0.3675000071525574
15.527606398591338,0.0222040005028247,-0.9896639585494996,0.1610399931669235,0.1574999988079071,1.0674999952316284,-0.3149999976158142
15.54790392329538,0.0212280005216598,-0.9916160106658936,0.1617719978094101,0.2450000047683715,1.1375000476837158,-0.262499988079071
15.56820144799942,0.0204959996044635,-0.990884006023407,0.1598199903964996,0.3149999976158142,1.0850000381469729,-0.2275000065565109
15.588498972703462,0.0195199996232986,-0.98990797996521,0.1612839996814727,0.3849999904632568,0.9800000190734864,-0.2800000011920929
15.608796497407504,0.0200079996138811,-0.9889319539070128,0.1600639969110489,0.4025000035762787,0.7699999809265137,-0.332500010728836
15.629094022111545,0.0187879987061023,-0.9901520013809204,0.1564040035009384,0.5074999928474426,0.6299999952316284,-0.332500010728836
15.649391546815586,0.0168359987437725,-0.9884439706802368,0.1578679978847503,0.7175000309944153,0.5249999761581421,-0.3849999904632568
15.669689071519628,0.0173240005970001,-0.9877119660377502,0.1590880006551742,0.6650000214576721,0.3149999976158142,-0.262499988079071
15.689986596223669,0.018300000578165,-0.9864919781684875,0.1595759987831115,0.2800000011920929,0.0525000020861625,-0.0525000020861625
15.71028412092771,0.018300000578165,-0.9862479567527772,0.1571359932422638,0.0350000001490116,-0.1225000023841857,0.0874999985098838
15.730581645631752,0.0190319996327161,-0.985759973526001,0.1576239913702011,-0.1225000023841857,-0.1924999952316284,0.2100000083446502
15.750879170335793,0.0207399986684322,-0.9874680042266846,0.1593319922685623,-0.4200000166893005,-0.2450000047683715,0.2975000143051147
15.771176695039834,0.0202520005404949,-0.9891759753227234,0.1600639969110489,-0.6650000214576721,-0.4550000131130218,0.3849999904632568
15.791474219743876,0.0197639986872673,-0.990395963191986,0.1603080034255981,-0.612500011920929,-0.8224999904632568,0.4375
15.811771744447917,0.0173240005970001,-0.9911279678344728,0.1600639969110489,-0.3849999904632568,-1.0674999952316284,0.5074999928474426
15.832069269151958,0.0163480006158351,-0.990884006023407,0.1600639969110489,-0.2100000083446502,-1.4874999523162842,0.5600000023841858
15.852366793856,0.0148839997127652,-0.98990797996521,0.1610399931669235,-0.0525000020861625,-1.924999952316284,0.4900000095367431
15.872664318560041,0.0161039996892213,-0.9896639585494996,0.1610399931669235,0.0700000002980232,-2.2049999237060547,0.5600000023841858
15.892961843264082,0.0187879987061023,-0.9906399846076964,0.1625040024518966,0.0525000020861625,-2.3975000381469727,0.6299999952316284
15.913259367968124,0.0197639986872673,-0.9923479557037354,0.1607960015535354,0.2450000047683715,-2.555000066757202,0.6650000214576721
15.933556892672165,0.020983999595046,-0.993079960346222,0.1603080034255981,0.4550000131130218,-2.694999933242798,0.612500011920929
15.953854417376206,0.0207399986684322,-0.990884006023407,0.1598199903964996,0.699999988079071,-2.7300000190734863,0.4724999964237213
15.974151942080248,0.0207399986684322,-0.990884006023407,0.1603080034255981,0.962499976158142,-2.8350000381469727,0.332500010728836
15.994449466784289,0.0202520005404949,-0.9884439706802368,0.1598199903964996,1.190000057220459,-2.992500066757202,0.3149999976158142
16.01474699148833,0.0192760005593299,-0.9882000088691713,0.1612839996814727,1.1375000476837158,-2.9574999809265137,0.4724999964237213
16.03504451619237,0.0170799996703863,-0.9886879920959472,0.1607960015535354,0.962499976158142,-2.9574999809265137,0.6474999785423279
16.055342040896413,0.0173240005970001,-0.987223982810974,0.1603080034255981,0.7699999809265137,-2.940000057220459,0.699999988079071
16.075639565600454,0.0185439996421337,-0.9874680042266846,0.1593319922685623,0.5425000190734863,-2.9574999809265137,0.699999988079071
16.095937090304496,0.0195199996232986,-0.9889319539070128,0.1590880006551742,0.4375,-2.992500066757202,0.699999988079071
16.116234615008537,0.0200079996138811,-0.9901520013809204,0.1605519950389862,0.5249999761581421,-2.9749999046325684,0.612500011920929
16.13653213971258,0.0190319996327161,-0.9906399846076964,0.1603080034255981,0.5074999928474426,-2.940000057220459,0.5425000190734863
16.15682966441662,0.0192760005593299,-0.9911279678344728,0.1590880006551742,0.5774999856948853,-2.9049999713897705,0.5600000023841858
16.17712718912066,0.0192760005593299,-0.9906399846076964,0.1593319922685623,0.7175000309944153,-2.799999952316284,0.612500011920929
16.197424713824702,0.0207399986684322,-0.98990797996521,0.1603080034255981,0.7875000238418579,-2.6600000858306885,0.612500011920929
16.217722238528744,0.0219599995762109,-0.9884439706802368,0.1615279912948608,0.7699999809265137,-2.3975000381469727,0.5600000023841858
16.238019763232785,0.0231800004839897,-0.9889319539070128,0.1620160043239593,0.699999988079071,-2.117500066757202,0.4900000095367431
16.258317287936826,0.0226919986307621,-0.9864919781684875,0.1625040024518966,0.7875000238418579,-1.9774999618530276,0.4025000035762787
16.278614812640868,0.0224479995667934,-0.9869799613952636,0.163235992193222,0.7350000143051147,-1.8025000095367432,0.3149999976158142
16.29891233734491,0.0217159986495971,-0.9879559874534608,0.1637239903211593,0.5249999761581421,-1.662500023841858,0.262499988079071
16.31920986204895,0.0212280005216598,-0.9913719892501832,0.1612839996814727,0.4200000166893005,-1.4524999856948853,0.262499988079071
16.33950738675299,0.0187879987061023,-0.994055986404419,0.1610399931669235,0.5774999856948853,-1.1549999713897705,0.2275000065565109
16.359804911457033,0.0187879987061023,-0.9935680031776428,0.1622599959373474,0.8224999904632568,-0.9975000023841858,0.2100000083446502
16.380102436161074,0.0212280005216598,-0.990395963191986,0.1622599959373474,1.0850000381469729,-0.8400000333786011,0.1225000023841857
16.400399960865116,0.0229359995573759,-0.9889319539070128,0.1610399931669235,1.1725000143051147,-0.5425000190734863,0.0700000002980232
16.420697485569157,0.0241560004651546,-0.9877119660377502,0.1595759987831115,1.225000023841858,-0.2800000011920929,-0.0350000001490116
16.4409950102732,0.0214719995856285,-0.9882000088691713,0.1612839996814727,1.225000023841858,0.0700000002980232,-0.1050000041723251
16.46129253497724,0.0212280005216598,-0.9882000088691713,0.1637239903211593,1.1200000047683716,0.3499999940395355,-0.1574999988079071
16.48159005968128,0.0204959996044635,-0.9860039949417114,0.1642120033502578,0.9100000262260436,0.4900000095367431,-0.1400000005960464
16.501887584385322,0.0207399986684322,-0.9840520024299622,0.1634799987077713,0.5249999761581421,0.612500011920929,-0.1225000023841857
16.522185109089364,0.0202520005404949,-0.9852719902992249,0.1615279912948608,0.0700000002980232,0.7175000309944153,-0.1924999952316284
16.542482633793405,0.0185439996421337,-0.9874680042266846,0.1607960015535354,-0.262499988079071,0.875,-0.2800000011920929
16.562780158497446,0.0180559996515512,-0.9906399846076964,0.1615279912948608,-0.2975000143051147,1.0149999856948853,-0.4025000035762787
16.583077683201488,0.0190319996327161,-0.9918599724769592,0.1644559949636459,-0.2450000047683715,1.0149999856948853,-0.4200000166893005
16.60337520790553,0.0195199996232986,-0.9869799613952636,0.1637239903211593,-0.0525000020861625,0.9800000190734864,-0.4025000035762787
16.62367273260957,0.0207399986684322,-0.9855159521102904,0.1625040024518966,-0.1400000005960464,1.190000057220459,-0.3149999976158142
16.64397025731361,0.0222040005028247,-0.9864919781684875,0.1634799987077713,-0.1574999988079071,1.5049999952316284,-0.2450000047683715
16.664267782017653,0.0234239995479583,-0.9879559874534608,0.1637239903211593,-0.2275000065565109,1.784999966621399,-0.2975000143051147
16.684565306721694,0.0239119995385408,-0.990884006023407,0.1642120033502578,-0.3675000071525574,2.0299999713897705,-0.4375
16.704862831425736,0.0251320004463195,-0.9911279678344728,0.1642120033502578,-0.2275000065565109,2.4674999713897705,-0.5600000023841858
16.725160356129777,0.0251320004463195,-0.9896639585494996,0.1647000014781952,-0.1225000023841857,2.870000123977661,-0.5950000286102295
16.74545788083382,0.0241560004651546,-0.987223982810974,0.1651879996061325,-0.0700000002980232,3.184999942779541,-0.6474999785423279
16.76575540553786,0.0234239995479583,-0.9874680042266846,0.1634799987077713,-0.1050000041723251,3.4124999046325684,-0.8050000071525574
16.7860529302419,0.0234239995479583,-0.9860039949417114,0.1654319912195205,-0.1574999988079071,3.902499914169312,-0.9100000262260436
16.806350454945942,0.0229359995573759,-0.9860039949417114,0.1654319912195205,-0.4724999964237213,4.497499942779541,-0.8400000333786011
16.826647979649984,0.0226919986307621,-0.9869799613952636,0.1666519939899444,-0.6825000047683716,4.672500133514404,-0.8924999833106995
16.846945504354025,0.0222040005028247,-0.9894199967384338,0.1647000014781952,-0.8575000166893005,4.900000095367432,-1.0499999523162842
16.867243029058066,0.0214719995856285,-0.9916160106658936,0.1647000014781952,-0.699999988079071,5.232500076293945,-1.1024999618530271
16.887540553762108,0.0222040005028247,-0.9911279678344728,0.1681160032749176,-0.3149999976158142,5.757500171661377,-1.0499999523162842
16.90783807846615,0.0263519994914531,-0.990395963191986,0.1688479930162429,-0.1749999970197677,6.177500247955322,-1.0325000286102295
16.92813560317019,0.028303999453783,-0.9923479557037354,0.1647000014781952,-0.1050000041723251,6.440000057220459,-1.277500033378601
16.94843312787423,0.0261080004274845,-0.990884006023407,0.1583559960126876,0.1050000041723251,6.982500076293945,-1.715000033378601
16.968730652578273,0.0258639995008707,-0.9891759753227234,0.1554279923439026,0.1225000023841857,7.71750020980835,-1.9774999618530276
16.989028177282314,0.0280600003898143,-0.9889319539070128,0.1510359942913055,0.1749999970197677,8.364999771118164,-2.2225000858306885
17.009325701986356,0.0292799994349479,-0.9833199977874756,0.1515239924192428,0.2800000011920929,9.3100004196167,-2.4674999713897705
17.029623226690397,0.0297679994255304,-0.9794159531593324,0.1554279923439026,-0.4200000166893005,10.220000267028809,-2.5199999809265137
17.04992075139444,0.0263519994914531,-0.9789279699325562,0.1607960015535354,-1.3650000095367432,10.920000076293944,-2.625
17.07021827609848,0.0261080004274845,-0.9806360006332396,0.167383998632431,-2.134999990463257,11.585000038146973,-2.747499942779541
17.09051580080252,0.0290360003709793,-0.982587993144989,0.1686040014028549,-2.782500028610229,12.302499771118164,-2.6600000858306885
17.110813325506562,0.0319640003144741,-0.9869799613952636,0.1661639958620071,-3.325000047683716,12.774999618530272,-2.677500009536743
17.131110850210604,0.032940000295639,-0.9916160106658936,0.1647000014781952,-3.5350000858306885,13.142499923706056,-3.0450000762939453
17.151408374914645,0.0326960012316703,-0.9999119639396667,0.1642120033502578,-3.3949999809265137,13.614999771118164,-3.4124999046325684
17.171705899618686,0.0309880003333091,-1.006011962890625,0.1595759987831115,-2.1875,14.454999923706056,-3.745000123977661
17.192003424322728,0.0300120003521442,-1.0082080364227295,0.1559159904718399,-0.5074999928474426,15.417500495910645,-4.164999961853027
17.21230094902677,0.0339160002768039,-0.9960079789161682,0.1505479961633682,2.257499933242798,15.855000495910645,-5.320000171661377
17.23259847373081,0.0307439994066953,-0.9882000088691713,0.1498159915208816,2.6600000858306885,16.467500686645508,-5.740000247955322
17.252895998434852,0.0268399994820356,-0.9821000099182128,0.1503039896488189,2.380000114440918,16.8700008392334,-5.880000114440918
17.273193523138893,0.0261080004274845,-0.975268006324768,0.1512800008058548,1.5399999618530271,16.905000686645508,-5.949999809265137
17.293491047842934,0.0234239995479583,-0.9686799645423888,0.1520119905471801,0.262499988079071,16.922500610351562,-5.914999961853027
17.313788572546976,0.0292799994349479,-0.9730719923973083,0.1534759998321533,-1.0850000381469729,16.729999542236328,-6.002500057220459
17.334086097251017,0.0287919994443655,-0.9750239849090576,0.1566479951143264,-2.484999895095825,16.8700008392334,-5.652500152587891
17.35438362195506,0.0285479985177516,-0.9838079810142516,0.1561599969863891,-3.622499942779541,16.572500228881836,-5.442500114440918
17.3746811466591,0.0265959985554218,-0.9943000078201294,0.1539639979600906,-4.199999809265137,16.362499237060547,-5.144999980926514
17.39497867136314,0.0246439985930919,-1.0021079778671265,0.1544519960880279,-3.7799999713897705,15.609999656677246,-5.057499885559082
17.415276196067182,0.0214719995856285,-1.0040600299835205,0.1561599969863891,-2.7300000190734863,14.699999809265137,-4.900000095367432
17.435573720771224,0.0197639986872673,-1.0030839443206787,0.1561599969863891,-1.627500057220459,13.667500495910645,-4.917500019073486
17.455871245475265,0.020983999595046,-0.9984479546546936,0.1554279923439026,-0.5600000023841858,12.635000228881836,-5.022500038146973
17.476168770179306,0.0226919986307621,-0.998203992843628,0.1515239924192428,0.1574999988079071,11.795000076293944,-4.987500190734863
17.496466294883348,0.0231800004839897,-0.9994239807128906,0.147376000881195,0.6825000047683716,10.727499961853027,-4.829999923706055
17.51676381958739,0.0224479995667934,-0.9928359985351562,0.1442039906978607,1.4524999856948853,9.520000457763672,-4.445000171661377
17.53706134429143,0.0200079996138811,-0.98990797996521,0.1442039906978607,1.9774999618530276,8.1899995803833,-3.972500085830689
17.557358868995472,0.0195199996232986,-0.990884006023407,0.1442039906978607,1.9424999952316284,6.789999961853027,-3.3949999809265137
17.577656393699513,0.0192760005593299,-0.9918599724769592,0.1442039906978607,1.8200000524520876,5.635000228881836,-2.694999933242798
17.597953918403554,0.0207399986684322,-0.9864919781684875,0.1461559981107711,1.6974999904632568,4.445000171661377,-2.012500047683716
17.618251443107596,0.0231800004839897,-0.981611967086792,0.1505479961633682,1.1725000143051147,3.150000095367432,-1.5049999952316284
17.638548967811637,0.0287919994443655,-0.9786840081214904,0.1537199914455413,0.262499988079071,1.9424999952316284,-1.0674999952316284
17.65884649251568,0.0319640003144741,-0.9786840081214904,0.1534759998321533,-0.7524999976158142,0.962499976158142,-0.5950000286102295
17.67914401721972,0.0326960012316703,-0.9847840070724488,0.1568920016288757,-1.5225000381469729,0.1050000041723251,-0.0874999985098838
17.69944154192376,0.0346480011940002,-0.9916160106658936,0.1590880006551742,-1.8200000524520876,-0.5074999928474426,0.4200000166893005
17.719739066627803,0.0351359993219375,-0.9960079789161682,0.157379999756813,-1.4175000190734863,-1.2074999809265137,0.6825000047683716
17.740036591331844,0.0385520011186599,-1.002351999282837,0.152988001704216,-0.6299999952316284,-1.8025000095367432,0.699999988079071
17.760334116035885,0.0390399992465972,-1.0040600299835205,0.1490840017795562,0.4375,-1.662500023841858,0.6650000214576721
17.780631640739927,0.0436760000884532,-1.001863956451416,0.1481079906225204,1.680000066757202,-1.5225000381469729,0.5774999856948853
17.800929165443968,0.046604000031948,-0.9972279667854308,0.1451800018548965,2.502500057220459,-0.8924999833106995,0.5249999761581421
17.82122669014801,0.0444080010056495,-0.9842959642410278,0.1478639990091323,2.782500028610229,-0.4900000095367431,0.1749999970197677
17.84152421485205,0.0422119982540607,-0.9803919792175292,0.1512800008058548,2.257499933242798,-0.2275000065565109,-0.0350000001490116
17.861821739556092,0.0380639992654323,-0.9803919792175292,0.1551840007305145,0.699999988079071,0.1924999952316284,-0.0700000002980232
17.882119264260133,0.038307998329401,-0.9862479567527772,0.153231993317604,0.0175000000745058,-0.1050000041723251,0.0175000000745058
17.902416788964175,0.0351359993219375,-0.9869799613952636,0.1537199914455413,-0.1050000041723251,-0.1574999988079071,-0.0175000000745058
17.922714313668216,0.0334279984235763,-0.9925919771194458,0.1544519960880279,-0.4375,-0.3149999976158142,-0.0525000020861625
17.943011838372257,0.0324519984424114,-0.9972279667854308,0.1527439951896667,-0.4200000166893005,-0.6474999785423279,0.1400000005960464
17.9633093630763,0.0295239984989166,-0.9967399835586548,0.1485960036516189,-0.0874999985098838,-0.875,0.3149999976158142
17.98360688778034,0.0268399994820356,-0.9999119639396667,0.148839995265007,0.1225000023841857,-1.4350000619888306,0.4025000035762787
18.00390441248438,0.0334279984235763,-0.9957639575004578,0.1549399942159652,0.262499988079071,-1.6449999809265137,0.4025000035762787
18.024201937188423,0.0392839983105659,-0.9864919781684875,0.1554279923439026,0.5249999761581421,-1.347499966621399,0.4200000166893005
18.044499461892464,0.0427000001072883,-0.9794159531593324,0.1590880006551742,0.6650000214576721,-1.5049999952316284,0.4550000131130218
18.064796986596505,0.0480679981410503,-0.9781959652900696,0.1564040035009384,-0.1050000041723251,-1.8200000524520876,0.4025000035762787
18.085094511300547,0.0509959980845451,-0.981611967086792,0.1586000025272369,-1.5225000381469729,-1.784999966621399,0.2275000065565109
18.105392036004588,0.0502640008926391,-0.9894199967384338,0.1639679968357086,-2.6424999237060547,-1.5924999713897705,0.0175000000745058
18.12568956070863,0.0485559999942779,-0.9991799592971802,0.157379999756813,-2.414999961853028,-1.680000066757202,0.0350000001490116
18.14598708541267,0.047580000013113,-0.9999119639396667,0.1520119905471801,-1.2949999570846558,-1.2599999904632568,-0.0175000000745058
18.166284610116712,0.0463600009679794,-0.9947879910469056,0.1478639990091323,-0.1749999970197677,-1.0850000381469729,-0.2275000065565109
18.186582134820753,0.0500199981033802,-0.9864919781684875,0.1483519971370697,0.6825000047683716,-1.1549999713897705,-0.5950000286102295
18.206879659524795,0.0509959980845451,-0.9842959642410278,0.1478639990091323,0.1400000005960464,-0.6474999785423279,-0.9100000262260436
18.227177184228836,0.0497759990394115,-0.985759973526001,0.1478639990091323,-0.8924999833106995,-0.1225000023841857,-0.9800000190734864
18.247474708932877,0.0458719991147518,-0.9838079810142516,0.1507920026779174,-1.5049999952316284,0.5249999761581421,-0.8400000333786011
18.26777223363692,0.0458719991147518,-0.982587993144989,0.1544519960880279,-1.924999952316284,1.0149999856948853,-0.5600000023841858
18.28806975834096,0.0436760000884532,-0.9818559885025024,0.1517679989337921,-2.117500066757202,1.4350000619888306,-0.4025000035762787
18.308367283045,0.0463600009679794,-0.9830759763717652,0.1507920026779174,-2.4674999713897705,1.8200000524520876,-0.1749999970197677
18.328664807749043,0.0512399971485137,-0.9794159531593324,0.1537199914455413,-2.8350000381469727,2.134999990463257,-0.0700000002980232
18.348962332453084,0.0517279990017414,-0.9769759774208068,0.1544519960880279,-3.569999933242798,2.677500009536743,0.0350000001490116
18.369259857157125,0.0490439981222152,-0.9781959652900696,0.1520119905471801,-4.462500095367432,3.184999942779541,0.1574999988079071
18.389557381861167,0.0495319999754428,-0.9808799624443054,0.148839995265007,-5.389999866485596,3.552500009536743,0.3849999904632568
18.409854906565208,0.047580000013113,-0.9860039949417114,0.1464000046253204,-6.894999980926514,4.8125,0.8224999904632568
18.43015243126925,0.0487999990582466,-0.9864919781684875,0.1476199924945831,-7.402500152587891,4.795000076293945,0.7699999809265137
