Time (seconds),acc_x,acc_y,acc_z,gyro_x,gyro_y,gyro_z
0.020235978212866185,-0.0248879995197057,-1.065303921699524,0.196175992488861,-30.239999771118164,-39.20000076293945,8.994999885559082
0.04047195642573237,-0.0710039958357811,-1.1050759553909302,0.1510359942913055,-26.582500457763672,-38.255001068115234,9.887499809265137
0.060707934638598554,-0.1320039927959442,-1.1677839756011963,0.1324919909238815,-25.479999542236328,-41.650001525878906,7.297500133514404
0.08094391285146474,-0.1107759997248649,-1.2614799737930298,0.0814960002899169,-27.125,-42.31499862670898,-0.8575000166893005
0.10117989106433092,-0.0585599988698959,-1.319064021110535,0.0065879998728632,-22.487499237060547,-31.342500686645508,-13.614999771118164
0.12141586927719711,-0.037331998348236,-1.2548919916152954,-0.0624639987945556,-10.202500343322754,-19.565000534057617,-23.625
0.1416518474900633,-0.0243999995291233,-1.1324039697647097,-0.0580720007419586,2.4674999713897705,-16.975000381469727,-24.482500076293945
0.16188782570292948,-0.0256199985742568,-1.0550559759140017,-0.0380639992654323,13.667500495910645,-18.6200008392334,-18.462499618530277
0.18212380391579566,-0.0846679955720901,-0.9576999545097352,-0.0314759984612464,29.049999237060547,-18.6200008392334,-10.13249969482422
0.20235978212866185,-0.1481079906225204,-0.9040200114250184,-0.0346480011940002,37.869998931884766,-20.28249931335449,-1.277500033378601
0.22259576034152803,-0.201787993311882,-0.8193519711494446,-0.0497759990394115,44.11750030517578,-18.88249969482422,6.142499923706055
0.24283173855439422,-0.1793399900197982,-0.7112599611282349,-0.0082959998399019,25.497499465942383,-13.282500267028809,7.157500267028809
0.2630677167672604,-0.1278560012578964,-0.8276479840278625,0.0129319997504353,0.1574999988079071,-5.932499885559082,5.53000020980835
0.28330369498012653,-0.0988200008869171,-0.965507984161377,0.0407480001449584,-14.03499984741211,0.4025000035762787,4.847499847412109
0.3035396731929927,-0.1015039980411529,-1.1480200290679932,0.0405040010809898,-14.787500381469728,3.762500047683716,4.550000190734863
0.32377565140585884,-0.1246839985251426,-1.207800030708313,0.0351359993219375,3.0274999141693115,2.309999942779541,5.232500076293945
0.344011629618725,-0.0849120020866394,-1.2051160335540771,0.05197199806571,18.987499237060547,1.1375000476837158,4.042500019073486
0.36424760783159116,-0.0990639999508857,-1.1782759428024292,0.0946719944477081,29.96000099182129,5.442500114440918,4.514999866485596
0.3844835860444573,-0.1851959973573684,-1.0716480016708374,0.1437159925699234,35.0525016784668,8.697500228881836,8.942500114440918
0.40471956425732347,-0.2398519963026046,-0.9576999545097352,0.1617719978094101,34.352500915527344,7.175000190734863,12.862500190734863
0.42495554247018963,-0.2503440082073211,-0.852292001247406,0.1688479930162429,31.44750022888184,4.130000114440918,14.595000267028809
0.4451915206830558,-0.2210640013217926,-0.8232559561729431,0.0805199965834617,23.309999465942383,4.619999885559082,15.399999618530272
0.46542749889592194,-0.1576239913702011,-0.8071519732475281,0.1046760007739067,19.38999938964844,9.11750030517578,17.5
0.4856634771087881,-0.1122400015592575,-0.8271600008010864,0.143227994441986,14.350000381469728,12.477499961853027,17.482500076293945
0.5058994553216543,-0.0893040001392364,-0.8561959862709045,0.1622599959373474,9.765000343322754,18.112499237060547,14.699999809265137
0.5261354335345204,-0.06734399497509,-0.9067040085792542,0.1420079916715622,1.347499966621399,23.887500762939453,10.324999809265137
0.5463714117473866,-0.090279996395111,-0.9594079852104188,0.1241960003972053,-1.4175000190734863,24.780000686645508,7.262499809265137
0.5666073899602527,-0.1363959908485412,-0.975268006324768,0.1510359942913055,1.5049999952316284,21.962499618530277,3.9375
0.5868433681731189,-0.1842200011014938,-0.9454999566078186,0.185928001999855,3.8324999809265137,21.489999771118164,1.277500033378601
0.607079346385985,-0.1842200011014938,-0.944767951965332,0.2010560035705566,2.432500123977661,23.48500061035156,-0.3849999904632568
0.6273153245988512,-0.1825120002031326,-0.9459879994392396,0.2217959910631179,2.484999895095825,25.88249969482422,-0.2100000083446502
0.6475513028117174,-0.1829999983310699,-0.9642879962921144,0.2232600003480911,0.8224999904632568,25.042499542236328,-0.1924999952316284
0.6677872810245835,-0.1981279999017715,-0.9808799624443054,0.249123990535736,3.132499933242798,24.27250099182129,-0.6650000214576721
0.6880232592374497,-0.1866599917411804,-0.9320799708366394,0.2637639939785003,6.545000076293945,23.48500061035156,-2.362499952316284
0.7082592374503158,-0.1398119926452636,-0.9035319685935974,0.2398519963026046,7.997499942779541,21.38500022888184,-7.367499828338623
0.728495215663182,-0.1232199966907501,-0.9315919876098632,0.2281399965286255,2.1700000762939453,18.899999618530277,-8.819999694824219
0.7487311938760481,-0.1190719977021217,-0.977952003479004,0.2254559993743896,-2.134999990463257,19.25,-6.300000190734863
0.7689671720889143,-0.1154119968414306,-0.9916160106658936,0.2571759819984436,3.009999990463257,25.00749969482422,-5.232500076293945
0.7892031503017805,-0.1649439930915832,-0.957211971282959,0.264983981847763,11.725000381469728,31.552499771118164,-7.332499980926514
0.8094391285146466,-0.1778759956359863,-0.8940159678459167,0.2520520091056824,13.982500076293944,32.23500061035156,-10.779999732971191
0.8296751067275128,-0.175924003124237,-0.8603439927101135,0.2537599802017212,10.342499732971191,30.747499465942383,-13.142499923706056
0.8499110849403789,-0.17323999106884,-0.8510719537734985,0.2952399849891662,-1.6100000143051147,33.35499954223633,-13.824999809265137
0.8701470631532451,-0.1820240020751953,-0.8437519669532776,0.3132959902286529,-7.490000247955322,35.122501373291016,-12.512499809265137
0.8903830413661112,-0.2034959942102432,-0.8476560115814209,0.3064639866352081,-15.38249969482422,36.400001525878906,-11.515000343322754
0.9106190195789774,-0.2544919848442077,-0.8769359588623047,0.257420003414154,-23.99250030517578,38.63999938964844,-11.987500190734863
0.9308549977918436,-0.2637639939785003,-0.9835639595985411,0.234484001994133,-31.01000022888184,39.4275016784668,-11.392499923706056
0.9510909760047097,-0.2759639918804168,-1.039440035820007,0.2452199906110763,-28.787500381469727,38.0099983215332,-9.904999732971191
0.9713269542175759,-0.3013399839401245,-1.0516400337219238,0.1788519918918609,-25.44499969482422,36.994998931884766,-9.957500457763672
0.991562932430442,-0.2422920018434524,-1.1587560176849363,0.1485960036516189,-23.55500030517578,37.76499938964844,-6.772500038146973
1.0117989106433083,-0.2588839828968048,-1.2683119773864746,0.1119959950447082,-15.225000381469728,31.815000534057617,-0.7350000143051147
1.0320348888561746,-0.379175990819931,-1.3288239240646362,0.006343999877572,-4.724999904632568,24.46500015258789,6.684999942779541
1.0522708670690408,-0.4169960021972656,-1.319551944732666,0.0631959959864616,8.539999961853027,15.592499732971191,21.15749931335449
1.072506845281907,-0.3943039774894714,-1.2536720037460327,0.0885719954967498,17.6924991607666,3.954999923706055,34.22999954223633
1.0927428234947734,-0.3264719843864441,-1.073356032371521,0.0988200008869171,27.387500762939453,-2.450000047683716,34.98250198364258
1.1129788017076396,-0.2593719959259033,-0.8518039584159851,0.1266359984874725,26.6875,-8.1899995803833,23.34499931335449
1.133214779920506,-0.1766559928655624,-0.7158960103988647,0.1085800006985664,14.734999656677246,-11.707500457763672,6.440000057220459
1.1534507581333722,-0.1100439950823783,-0.738099992275238,0.0380639992654323,-2.2225000858306885,-10.0625,-6.860000133514404
1.1736867363462384,-0.0705159977078437,-0.7712839841842651,0.0112239997833967,-15.015000343322754,-10.744999885559082,-14.927499771118164
1.1939227145591047,-0.1190719977021217,-0.8884040117263794,-0.0448959991335868,-27.614999771118164,-15.207500457763672,-17.832500457763672
1.214158692771971,-0.1776320040225982,-0.9557479619979858,-0.0536799989640712,-24.09749984741211,-22.34749984741211,-18.1825008392334
1.2343946709848372,-0.2081319987773895,-0.9969840049743652,-0.038307998329401,-16.309999465942383,-30.502500534057617,-13.702500343322754
1.2546306491977035,-0.1847079992294311,-0.9945439696311952,-0.0263519994914531,-7.769999980926514,-33.337501525878906,-8.399999618530273
1.2748666274105698,-0.1617719978094101,-0.9835639595985411,-0.0422119982540607,-5.074999809265137,-30.415000915527344,-3.797500133514404
1.295102605623436,-0.1356640011072158,-0.9764879941940308,-0.0334279984235763,-5.40749979019165,-28.875,0.4375
1.3153385838363023,-0.1215119957923889,-1.0216280221939087,-0.0180559996515512,-9.11750030517578,-30.100000381469727,1.5049999952316284
1.3355745620491686,-0.1459119915962219,-1.020408034324646,0.0043919999152421,-9.59000015258789,-33.54750061035156,-2.2049999237060547
1.3558105402620348,-0.1622599959373474,-1.0618879795074463,0.0073199998587369,-12.442500114440918,-39.68999862670898,-5.932499885559082
1.3760465184749011,-0.1612839996814727,-1.0784800052642822,0.0387960001826286,-9.0649995803833,-43.57500076293945,-8.27750015258789
1.3962824966877674,-0.1339560002088546,-1.063107967376709,0.0492879971861839,-3.202500104904175,-47.09249877929688,-11.0600004196167
1.4165184749006337,-0.1115079969167709,-0.9969840049743652,0.0317199975252151,3.4124999046325684,-49.630001068115234,-12.75749969482422
1.4367544531135,-0.0805199965834617,-0.9481839537620544,0.0546559989452362,6.387499809265137,-49.47249984741211,-12.65250015258789
1.4569904313263662,-0.038307998329401,-0.9035319685935974,0.0541680008172988,6.019999980926514,-48.45750045776367,-7.945000171661377
1.4772264095392325,-0.0082959998399019,-0.8815720081329346,0.0441639982163906,2.0824999809265137,-47.52999877929688,-3.0625
1.4974623877520987,-0.0358680002391338,-0.909875988960266,0.0505079999566078,-7.612500190734863,-43.04999923706055,0.3675000071525574
1.517698365964965,-0.0885719954967498,-0.9677039980888368,0.0675880014896392,-16.502500534057617,-40.18000030517578,1.225000023841858
1.5379343441778313,-0.1178519949316978,-1.0287039279937744,0.0641719996929168,-18.76000022888184,-39.11249923706055,0.7875000238418579
1.5581703223906975,-0.143227994441986,-1.0592039823532104,0.0644159987568855,-14.717499732971191,-40.459999084472656,0.7175000309944153
1.5784063006035638,-0.1620160043239593,-1.069451928138733,0.0744199976325035,-9.11750030517578,-46.375,0.5600000023841858
1.59864227881643,-0.1542080044746399,-1.0374879837036133,0.0707599967718124,-3.0450000762939453,-51.69499969482422,0.1749999970197677
1.6188782570292963,-0.1222440004348754,-0.9943000078201294,0.0563639998435974,-0.4375,-54.337501525878906,-0.7524999976158142
1.6391142352421626,-0.0788119956851005,-0.9806360006332396,0.0439199991524219,-3.3949999809265137,-56.84000015258789,-1.1375000476837158
1.6593502134550289,-0.0544119998812675,-0.9740479588508606,0.0380639992654323,-7.244999885559082,-57.067501068115234,-0.4025000035762787
1.6795861916678951,-0.0397720001637935,-0.96453195810318,0.0348920002579689,-10.114999771118164,-54.72249984741211,1.3650000095367432
1.6998221698807614,-0.037331998348236,-0.9662399888038636,0.0346480011940002,-13.335000038146973,-52.32500076293945,3.0799999237060547
1.7200581480936277,-0.0378200002014637,-0.9916160106658936,0.0387960001826286,-17.885000228881836,-51.15250015258789,3.867500066757202
1.740294126306494,-0.0256199985742568,-1.004547953605652,0.052216000854969,-19.21500015258789,-49.665000915527344,4.340000152587891
1.7605301045193602,-0.0370879992842674,-0.9977160096168518,0.0683199986815452,-18.44499969482422,-46.44499969482422,5.197500228881836
1.7807660827322265,-0.047580000013113,-1.0043039321899414,0.066611997783184,-17.325000762939453,-44.45000076293945,5.25
1.8010020609450927,-0.0507519990205764,-0.9994239807128906,0.0727119967341423,-14.105000495910645,-41.91249847412109,5.127500057220459
1.821238039157959,-0.0439199991524219,-0.9974719882011414,0.0692960023880004,-11.9350004196167,-39.28749847412109,5.670000076293945
1.8414740173708253,-0.0397720001637935,-0.9869799613952636,0.0670999959111213,-10.56999969482422,-37.01250076293945,6.527500152587891
1.8617099955836915,-0.0180559996515512,-0.9845399856567384,0.0697840005159378,-10.692500114440918,-34.82500076293945,7.087500095367432
1.8819459737965578,-0.0219599995762109,-1.0003999471664429,0.0800319984555244,-13.317500114440918,-31.920000076293945,7.595000267028809
1.902181952009424,-0.0295239984989166,-1.0196759700775146,0.0961359962821006,-15.015000343322754,-29.505001068115234,6.492499828338623
1.9224179302222903,-0.0326960012316703,-1.053347945213318,0.0807639956474304,-14.80500030517578,-28.0,4.672500133514404
1.9426539084351566,-0.0370879992842674,-1.0599359273910522,0.0692960023880004,-9.22249984741211,-26.18000030517578,2.450000047683716
1.9628898866480229,-0.0319640003144741,-1.0296800136566162,0.0649039968848228,-2.432500123977661,-24.325000762939453,1.1549999713897705
1.9831258648608892,-0.0285479985177516,-1.0033279657363892,0.0531919971108436,0.8924999833106995,-20.545000076293945,1.7675000429153442
2.003361843073755,-0.0568519979715347,-0.9769759774208068,0.052216000854969,0.5950000286102295,-18.042499542236328,2.2225000858306885
2.0235978212866215,-0.0849120020866394,-0.9518439769744872,0.0602679997682571,-2.5199999809265137,-18.252500534057617,2.240000009536743
2.0438337994994877,-0.0932080000638961,-0.9428159594535828,0.0434319972991943,-6.019999980926514,-16.940000534057617,2.484999895095825
2.064069777712354,-0.1132159978151321,-1.0091840028762815,0.0487999990582466,-11.287500381469728,-14.262499809265137,6.317500114440918
2.0843057559252203,-0.1090679988265037,-1.0089399814605713,0.0392839983105659,-11.095000267028809,-13.579999923706056,7.875
2.1045417341380865,-0.0839359983801841,-0.9877119660377502,0.0224479995667934,-9.484999656677246,-11.899999618530272,8.27750015258789
2.124777712350953,-0.0668559968471527,-0.9928359985351562,0.0100039998069405,-10.0625,-9.957500457763672,7.997499942779541
2.145013690563819,-0.0670999959111213,-0.9984479546546936,0.0129319997504353,-9.922499656677246,-7.454999923706055,7.402500152587891
2.1652496687766853,-0.0888160020112991,-0.9957639575004578,0.0131759997457265,-8.942500114440918,-6.28249979019165,6.474999904632568
2.1854856469895516,-0.1063839942216873,-0.9964959621429444,0.0204959996044635,-6.615000247955322,-5.792500019073486,6.054999828338623
2.205721625202418,-0.1259039938449859,-0.9896639585494996,0.0200079996138811,-3.0975000858306885,-4.53249979019165,6.40500020980835
2.225957603415284,-0.138835996389389,-0.9860039949417114,0.0161039996892213,-0.7175000309944153,-2.5374999046325684,7.349999904632568
2.2461935816281504,-0.1512800008058548,-0.9813680052757264,0.0187879987061023,0.2100000083446502,-1.1725000143051147,8.557499885559082
2.2664295598410167,-0.1564040035009384,-0.9679479598999025,0.0302559994161129,0.5249999761581421,-1.680000066757202,9.782500267028809
2.286665538053883,-0.1542080044746399,-0.9686799645423888,0.0251320004463195,-0.1050000041723251,-2.362499952316284,11.042500495910645
2.306901516266749,-0.1466439962387085,-0.9579439759254456,0.0292799994349479,0.1400000005960464,-2.362499952316284,11.515000343322754
2.3271374944796155,-0.1415199935436248,-0.9672159552574158,0.0178119987249374,-2.6424999237060547,-1.4350000619888306,11.130000114440918
2.3473734726924818,-0.1381039917469024,-0.9964959621429444,0.006343999877572,-5.197500228881836,0.2275000065565109,9.7475004196167
2.367609450905348,-0.1446920037269592,-1.012112021446228,0.0024399999529123,-5.635000228881836,1.9424999952316284,8.015000343322754
2.3878454291182143,-0.1561599969863891,-1.0182119607925415,-0.0009759999811649,-5.144999980926514,2.940000057220459,6.352499961853027
2.4080814073310806,-0.1681160032749176,-1.0250439643859863,0.0034159999340772,-4.585000038146973,3.4124999046325684,5.022500038146973
2.428317385543947,-0.177387997508049,-1.0274839401245115,0.0117119997739791,-4.007500171661377,3.3600001335144043,3.884999990463257
2.448553363756813,-0.1898320019245147,-1.0196759700775146,0.0158599987626075,-2.2049999237060547,2.7300000190734863,2.799999952316284
2.4687893419696794,-0.2022759914398193,-1.00381600856781,0.0234239995479583,1.0674999952316284,1.680000066757202,1.924999952316284
2.4890253201825456,-0.2113039940595626,-0.9847840070724488,0.0278159994632005,3.972500085830689,0.3149999976158142,1.5049999952316284
2.509261298395412,-0.2127679884433746,-0.965507984161377,0.0324519984424114,5.022500038146973,-1.5750000476837158,1.7675000429153442
2.529497276608278,-0.2113039940595626,-0.9537959694862366,0.033671997487545,3.587500095367432,-3.5350000858306885,2.6424999237060547
2.5497332548211444,-0.2022759914398193,-0.9528200030326844,0.033671997487545,0.8224999904632568,-5.372499942779541,3.640000104904175
2.5699692330340107,-0.1903200000524521,-0.9633119702339172,0.0300120003521442,-2.0999999046325684,-7.017499923706055,4.619999885559082
2.590205211246877,-0.1808039993047714,-0.9762439727783204,0.0287919994443655,-3.640000104904175,-8.207500457763672,5.582499980926514
2.6104411894597432,-0.1708000004291534,-0.9862479567527772,0.0280600003898143,-3.4825000762939453,-9.0649995803833,6.317500114440918
2.6306771676726095,-0.1664080023765564,-0.9877119660377502,0.0185439996421337,-2.275000095367432,-9.484999656677246,6.422500133514404
2.6509131458854758,-0.1527439951896667,-0.986735999584198,0.0187879987061023,-0.9975000023841858,-9.380000114440918,5.599999904632568
2.671149124098342,-0.1327359974384308,-0.9833199977874756,0.0180559996515512,-0.1924999952316284,-6.912499904632568,2.922499895095825
2.6913851023112083,-0.1295640021562576,-0.9886879920959472,0.0256199985742568,-0.5425000190734863,-5.53000020980835,1.8899999856948853
2.7116210805240746,-0.1327359974384308,-1.000643968582153,0.0280600003898143,-0.962499976158142,-3.745000123977661,1.347499966621399
2.731857058736941,-0.1371279954910278,-1.0084519386291504,0.0292799994349479,-0.3675000071525574,-2.0824999809265137,1.5575000047683716
2.752093036949807,-0.1444479972124099,-1.0043039321899414,0.0275719985365867,0.6650000214576721,-0.6650000214576721,1.8025000095367432
2.7723290151626734,-0.157379999756813,-0.9947879910469056,0.0207399986684322,1.2424999475479126,-0.0700000002980232,1.7675000429153442
2.7925649933755397,-0.1661639958620071,-0.9576999545097352,0.0341599993407726,2.817500114440918,0.1749999970197677,1.0674999952316284
2.812800971588406,-0.1725080013275146,-0.9657520055770874,0.0058559998869895,0.1400000005960464,0.8400000333786011,0.2975000143051147
2.833036949801272,-0.1932480037212371,-1.0140639543533323,0.0080519998446106,-0.1050000041723251,2.117500066757202,-0.3849999904632568
2.8532729280141385,-0.2037400007247924,-1.0287039279937744,0.0190319996327161,2.0299999713897705,1.8550000190734863,-0.1574999988079071
2.8735089062270047,-0.2025199979543686,-0.995519995689392,0.0258639995008707,5.582499980926514,0.699999988079071,0.8050000071525574
2.893744884439871,-0.2042279988527298,-0.961847960948944,0.0290360003709793,6.195000171661377,-1.2424999475479126,1.7324999570846558
2.9139808626527373,-0.2142319977283477,-0.948915958404541,0.0248879995197057,3.587500095367432,-3.377500057220459,2.240000009536743
2.9342168408656035,-0.2193560004234314,-0.9542839527130128,0.0217159986495971,1.0850000381469729,-4.53249979019165,2.502500057220459
2.95445281907847,-0.2122799903154373,-0.9625799655914308,0.0243999995291233,-0.4025000035762787,-5.617499828338623,2.887500047683716
2.974688797291336,-0.1866599917411804,-0.9698999524116516,0.0302559994161129,-1.4175000190734863,-6.212500095367432,3.4124999046325684
2.9949247755042023,-0.1625040024518966,-0.9713639616966248,0.0324519984424114,-1.9424999952316284,-6.072500228881836,3.692500114440918
3.0151607537170686,-0.1471319943666458,-0.9767319560050964,0.0312319993972778,-2.362499952316284,-5.442500114440918,3.4649999141693115
3.035396731929935,-0.1400559991598129,-0.9808799624443054,0.0304999984800815,-1.7324999570846558,-4.007500171661377,2.6075000762939453
3.055632710142801,-0.1356640011072158,-0.9840520024299622,0.0326960012316703,-0.7699999809265137,-2.065000057220459,1.277500033378601
3.0758686883556674,-0.1366399973630905,-0.9769759774208068,0.0351359993219375,0.4900000095367431,0.1050000041723251,-0.2975000143051147
3.0961046665685337,-0.1407880038022995,-0.966484010219574,0.0368440002202987,0.9975000023841858,2.484999895095825,-1.5575000047683716
3.1163406447814,-0.1539639979600906,-0.9601399898529052,0.0402599982917308,0.1225000023841857,4.550000190734863,-2.327500104904175
3.136576622994266,-0.1668960005044937,-0.9677039980888368,0.0422119982540607,-1.9075000286102293,5.914999961853027,-2.747499942779541
3.1568126012071325,-0.1790959984064102,-0.9833199977874756,0.0375759974122047,-3.3600001335144043,6.369999885559082,-2.782500028610229
3.1770485794199987,-0.1803160011768341,-0.9796599745750428,0.0348920002579689,-3.220000028610229,6.300000190734863,-2.6424999237060547
3.197284557632865,-0.1766559928655624,-0.9767319560050964,0.0287919994443655,-3.884999990463257,6.230000019073486,-2.450000047683716
3.2175205358457313,-0.17323999106884,-0.9799039959907532,0.0241560004651546,-4.952499866485596,6.195000171661377,-2.257499933242798
3.2377565140585975,-0.1793399900197982,-0.9835639595985411,0.0226919986307621,-5.53000020980835,6.212500095367432,-2.275000095367432
3.257992492271464,-0.1800719946622848,-0.9960079789161682,0.0280600003898143,-5.547500133514404,5.617499828338623,-2.450000047683716
3.27822847048433,-0.1820240020751953,-1.0187000036239624,0.0246439985930919,-3.150000095367432,5.232500076293945,-1.3825000524520874
3.2984644486971963,-0.1788519918918609,-1.0128439664840698,0.0268399994820356,-0.699999988079071,4.882500171661377,-0.5600000023841858
3.3187004269100626,-0.1698240041732788,-1.000643968582153,0.0412359982728958,1.1549999713897705,4.21750020980835,0.0874999985098838
3.338936405122929,-0.1583559960126876,-0.9847840070724488,0.0407480001449584,2.922499895095825,3.7799999713897705,0.3675000071525574
3.359172383335795,-0.1495719999074936,-0.9718520045280457,0.037331998348236,3.220000028610229,3.990000009536743,0.2275000065565109
3.3794083615486614,-0.1515239924192428,-0.9764879941940308,0.0344039984047412,2.345000028610229,4.65500020980835,-0.0874999985098838
3.3996443397615277,-0.1700679957866668,-0.9769759774208068,0.0378200002014637,2.5899999141693115,5.232500076293945,-1.277500033378601
3.419880317974394,-0.1903200000524521,-0.9821000099182128,0.0185439996421337,1.190000057220459,5.110000133514404,-2.992500066757202
3.4401162961872602,-0.1969079971313476,-0.9943000078201294,0.0275719985365867,1.4524999856948853,4.707499980926514,-4.637499809265137
3.4603522744001265,-0.20032399892807,-0.9960079789161682,0.0397720001637935,1.924999952316284,3.9375,-4.65500020980835
3.4805882526129928,-0.1915400028228759,-0.9757559895515442,0.0280600003898143,3.132499933242798,3.325000047683716,-3.2725000381469727
3.500824230825859,-0.1790959984064102,-0.9684360027313232,0.0197639986872673,2.9749999046325684,2.9749999046325684,-1.4175000190734863
3.5210602090387253,-0.1720200031995773,-0.9913719892501832,0.0241560004651546,0.875,2.9574999809265137,-0.0175000000745058
3.5412961872515916,-0.1693359911441803,-1.0125999450683594,0.0246439985930919,0.2800000011920929,3.202500104904175,0.3149999976158142
3.561532165464458,-0.1615279912948608,-1.0089399814605713,0.0253759995102882,2.1524999141693115,3.132499933242798,-0.0874999985098838
3.581768143677324,-0.1554279923439026,-0.9911279678344728,0.0204959996044635,4.007500171661377,3.3424999713897705,-0.5425000190734863
3.6020041218901904,-0.1522559970617294,-0.9745360016822816,0.0151279997080564,4.53249979019165,3.990000009536743,-0.8924999833106995
3.6222401001030566,-0.1559159904718399,-0.9686799645423888,0.0217159986495971,3.815000057220459,4.340000152587891,-1.0499999523162842
3.642476078315923,-0.1644559949636459,-0.97599995136261,0.028303999453783,2.9749999046325684,4.340000152587891,-1.1549999713897705
3.662712056528789,-0.1771439909934997,-0.985759973526001,0.0287919994443655,2.922499895095825,3.587500095367432,-1.3125
3.6829480347416554,-0.1876360028982162,-0.9889319539070128,0.0280600003898143,3.4825000762939453,2.362499952316284,-1.347499966621399
3.7031840129545217,-0.1869039982557296,-0.9803919792175292,0.0261080004274845,3.990000009536743,1.0325000286102295,-1.4350000619888306
3.723419991167388,-0.1739719957113266,-0.9716079831123352,0.0287919994443655,3.4825000762939453,0.2100000083446502,-1.4874999523162842
3.7436559693802542,-0.1576239913702011,-0.973315954208374,0.0290360003709793,2.047499895095825,0.0700000002980232,-1.4874999523162842
3.7638919475931205,-0.1446920037269592,-0.9808799624443054,0.0270840004086494,0.9275000095367432,0.3499999940395355,-1.2949999570846558
3.784127925805987,-0.1383479982614517,-0.98990797996521,0.0334279984235763,0.6299999952316284,1.1024999618530271,-1.0674999952316284
3.804363904018853,-0.1351760029792785,-0.9933239817619324,0.0385520011186599,1.4700000286102295,1.9774999618530276,-1.1200000047683716
3.8245998822317193,-0.1285879909992218,-0.9777079820632936,0.0344039984047412,2.922499895095825,2.8350000381469727,-1.715000033378601
3.8448358604445856,-0.1285879909992218,-0.975268006324768,0.0217159986495971,2.9049999713897705,5.022500038146973,-2.852499961853028
3.865071838657452,-0.1285879909992218,-0.9977160096168518,0.0200079996138811,1.8025000095367432,7.490000247955322,-4.514999866485596
3.885307816870318,-0.1322479993104934,-1.0077199935913086,0.0370879992842674,3.797500133514404,11.952500343322754,-5.337500095367432
3.9055437950831844,-0.1300520002841949,-0.9860039949417114,0.0224479995667934,5.005000114440918,12.8100004196167,-4.829999923706055
3.9257797732960507,-0.1410319954156875,-0.9625799655914308,0.0217159986495971,4.96999979019165,13.702500343322754,-4.199999809265137
3.946015751508917,-0.1481079906225204,-0.9559919834136964,0.0275719985365867,3.7100000381469727,14.630000114440918,-4.427500247955322
3.966251729721783,-0.1595759987831115,-0.9681919813156128,0.0280600003898143,2.677500009536743,16.292499542236328,-5.477499961853027
3.9864877079346495,-0.1642120033502578,-0.9879559874534608,0.0304999984800815,2.940000057220459,16.65999984741211,-6.720000267028809
4.006723686147516,-0.1583559960126876,-0.9894199967384338,0.0261080004274845,4.690000057220459,16.1875,-8.242500305175781
4.0269596643603816,-0.1471319943666458,-0.9750239849090576,0.0226919986307621,6.492499828338623,15.71500015258789,-10.149999618530272
4.047195642573247,-0.134443998336792,-0.9591639637947084,0.0239119995385408,7.349999904632568,16.642499923706055,-12.302499771118164
4.067431620786113,-0.1166319996118545,-0.9706319570541382,0.0322079993784427,6.054999828338623,18.357500076293945,-14.36750030517578
4.087667598998979,-0.1137039959430694,-1.020408034324646,0.0312319993972778,4.724999904632568,20.8075008392334,-14.84000015258789
4.107903577211845,-0.1310279965400695,-1.0421240329742432,0.0251320004463195,6.335000038146973,22.76749992370605,-13.49250030517578
4.128139555424711,-0.1500599980354309,-1.024067997932434,0.0163480006158351,8.960000038146973,23.83500099182129,-11.864999771118164
4.1483755336375765,-0.1559159904718399,-0.9869799613952636,0.0161039996892213,9.765000343322754,24.552499771118164,-11.095000267028809
4.168611511850442,-0.1412760019302368,-0.987223982810974,0.0300120003521442,7.804999828338623,26.162500381469727,-10.447500228881836
4.188847490063308,-0.1322479993104934,-1.0265079736709597,0.0273279994726181,6.5625,29.102500915527344,-8.6274995803833
4.209083468276174,-0.1427399963140487,-1.0372439622879028,0.0146399997174739,9.484999656677246,30.467500686645508,-6.335000038146973
4.22931944648904,-0.1449359953403473,-1.0128439664840698,0.0060999998822808,12.792500495910645,30.380001068115234,-5.337500095367432
4.249555424701906,-0.1468880027532577,-0.981123983860016,0.0056119998916983,13.212499618530272,30.25749969482422,-5.599999904632568
4.269791402914771,-0.147376000881195,-0.9637999534606934,0.0085399998351931,11.6899995803833,30.309999465942383,-6.510000228881836
4.290027381127637,-0.1461559981107711,-0.9667279720306396,-0.0004879999905824,10.482500076293944,31.482500076293945,-7.105000019073486
4.310263359340503,-0.1398119926452636,-0.9684360027313232,-0.0085399998351931,10.342499732971191,32.025001525878906,-7.349999904632568
4.330499337553369,-0.1249279975891113,-0.9691680073738098,-0.0126879997551441,9.484999656677246,31.86750030517578,-7.175000190734863
4.350735315766235,-0.1207799986004829,-0.974291980266571,-0.0251320004463195,7.787499904632568,32.35750198364258,-6.84250020980835
4.370971293979101,-0.1180959939956665,-0.9801479578018188,-0.0197639986872673,6.317500114440918,32.70750045776367,-6.929999828338623
4.391207272191966,-0.1017479971051216,-1.0016199350357056,-0.0219599995762109,4.619999885559082,33.79249954223633,-6.632500171661377
4.411443250404832,-0.0932080000638961,-1.0033279657363892,-0.0451399981975555,4.900000095367432,35.787498474121094,-6.107500076293945
4.431679228617698,-0.0810080021619796,-0.995519995689392,-0.046604000031948,5.512499809265137,36.45249938964844,-5.96750020980835
4.451915206830564,-0.0590479969978332,-0.9747799634933472,-0.0453839972615242,5.110000133514404,36.92499923706055,-6.772500038146973
4.47215118504343,-0.0505079999566078,-0.9484279751777648,-0.018300000578165,2.6424999237060547,39.165000915527344,-7.769999980926514
4.4923871632562955,-0.0431879982352256,-0.9486719965934752,0.0273279994726181,-5.320000171661377,46.497501373291016,-8.505000114440918
4.512623141469161,-0.0595359988510608,-0.9652639627456664,0.0409919992089271,-10.3774995803833,49.75249862670898,-8.1899995803833
4.532859119682027,-0.0775920003652572,-0.9925919771194458,0.0685639977455139,-13.212499618530272,50.24250030517578,-8.452500343322754
4.553095097894893,-0.0980879962444305,-1.0216280221939087,0.0780799984931945,-14.052499771118164,48.70249938964844,-9.239999771118164
4.573331076107759,-0.0985759943723678,-1.0411479473114014,0.1066280007362365,-13.93000030517578,46.4275016784668,-9.887499809265137
4.593567054320625,-0.0907679945230484,-1.0587159395217896,0.1273680031299591,-13.49250030517578,46.35750198364258,-10.395000457763672
4.6138030325334904,-0.0724679976701736,-1.0740879774093628,0.1224879994988441,-12.425000190734863,47.67000198364258,-11.270000457763672
4.634039010746356,-0.0670999959111213,-1.0850679874420166,0.1298079937696457,-11.270000457763672,47.23250198364258,-12.460000038146973
4.654274988959222,-0.0585599988698959,-1.0940959453582764,0.1398119926452636,-9.274999618530272,45.5,-15.067500114440918
4.674510967172088,-0.0409919992089271,-1.0706720352172852,0.134443998336792,-4.829999923706055,45.709999084472656,-17.90250015258789
4.694746945384954,-0.0036599999293684,-1.0189440250396729,0.1124840006232261,0.3675000071525574,46.462501525878906,-19.477500915527344
4.71498292359782,0.0368440002202987,-0.9640439748764038,0.0907679945230484,2.712500095367432,49.13999938964844,-18.655000686645508
4.735218901810685,0.0590479969978332,-0.933299958705902,0.061243999749422,1.8550000190734863,52.79750061035156,-15.907500267028809
4.755454880023551,0.0524599999189376,-0.9171959757804872,0.0344039984047412,-0.4375,57.20750045776367,-12.529999732971191
4.775690858236417,0.0300120003521442,-0.9206119775772096,0.0246439985930919,-3.990000009536743,62.98250198364258,-8.994999885559082
4.795926836449283,0.0148839997127652,-0.9389119744300842,0.0156159996986389,-7.699999809265137,68.44249725341797,-5.09250020980835
4.816162814662149,0.0036599999293684,-0.9633119702339172,0.0043919999152421,-9.782500267028809,73.1675033569336,-1.0499999523162842
4.8363987928750145,-0.0029279999434947,-0.9938119649887084,-0.0048799999058246,-10.149999618530272,76.4749984741211,2.765000104904175
4.85663477108788,-0.0051239999011158,-1.020651936531067,-0.0256199985742568,-8.505000114440918,78.19000244140625,5.914999961853027
4.876870749300746,-0.0107359997928142,-1.0418800115585327,-0.0412359982728958,-5.809999942779541,78.52249908447266,8.172499656677246
4.897106727513612,-0.0068319998681545,-1.0555440187454224,-0.046604000031948,-2.922499895095825,78.52249908447266,9.712499618530272
4.917342705726478,-0.0002439999952912,-1.0592039823532104,-0.0553879998624324,-0.0350000001490116,79.50250244140625,10.13249969482422
4.937578683939344,0.0060999998822808,-1.0657919645309448,-0.0688079968094825,2.5374999046325684,81.0425033569336,9.869999885559082
4.9578146621522095,-0.002195999957621,-1.063107967376709,-0.0688079968094825,7.804999828338623,81.88249969482422,9.677499771118164
4.978050640365075,-0.0056119998916983,-1.0201640129089355,-0.0439199991524219,15.032500267028809,81.35749816894531,8.399999618530273
4.998286618577941,0.0036599999293684,-1.0089399814605713,-0.062219999730587,16.15250015258789,81.25250244140625,6.177500247955322
5.018522596790807,-0.0075639998540282,-0.9957639575004578,-0.052947998046875,18.462499618530277,82.31999969482422,4.777500152587891
5.038758575003673,-0.0058559998869895,-0.9764879941940308,-0.0531919971108436,18.707500457763672,80.27249908447266,4.882500171661377
5.058994553216539,-0.0097599998116493,-0.9681919813156128,-0.0646599978208541,17.09749984741211,79.36250305175781,6.019999980926514
5.079230531429404,-0.0248879995197057,-0.975268006324768,-0.0739319995045661,13.93000030517578,79.37999725341797,7.402500152587891
5.09946650964227,-0.0424560010433197,-0.9996680021286012,-0.0534359999001026,10.989999771118164,72.02999877929688,10.779999732971191
5.119702487855136,-0.0263519994914531,-1.0030839443206787,-0.047335997223854,12.739999771118164,69.63249969482422,12.109999656677246
5.139938466068002,0.0146399997174739,-0.9828319549560548,-0.0453839972615242,14.857500076293944,66.5875015258789,13.125
5.160174444280868,0.0773480013012886,-0.96697199344635,-0.0644159987568855,14.175000190734863,64.2074966430664,13.824999809265137
5.1804104224937335,0.1339560002088546,-0.990884006023407,-0.1219999939203262,13.212499618530272,66.90250396728516,14.84000015258789
5.200646400706599,0.0895479992032051,-1.0194319486618042,-0.1232199966907501,18.217500686645508,72.48500061035156,16.25749969482422
5.220882378919465,0.0204959996044635,-1.0235799551010132,-0.0814960002899169,22.190000534057617,69.26499938964844,15.81999969482422
5.241118357132331,-0.0319640003144741,-1.0111359357833862,-0.0487999990582466,24.7450008392334,61.98500061035156,13.037500381469728
5.261354335345197,-0.0834480002522468,-0.9852719902992249,-0.0129319997504353,29.01499938964844,58.45000076293945,9.5024995803833
5.281590313558063,-0.0985759943723678,-0.9515999555587769,-0.0080519998446106,31.5,53.34000015258789,7.034999847412109
5.3018262917709285,-0.0856439992785453,-0.9235399961471558,-0.0253759995102882,30.030000686645508,50.71500015258789,6.264999866485596
5.322062269983794,-0.1229759976267814,-0.9315919876098632,-0.0204959996044635,22.575000762939453,53.567501068115234,5.022500038146973
5.34229824819666,-0.0990639999508857,-0.9860039949417114,-0.0165919996798038,4.8125,51.17000198364258,-1.5399999618530271
5.362534226409526,-0.0971119999885559,-1.0760400295257568,-0.0444080010056495,-12.197500228881836,47.040000915527344,-13.720000267028809
5.382770204622392,-0.1100439950823783,-1.1011719703674316,-0.0431879982352256,-13.107500076293944,46.025001525878906,-25.74250030517578
5.403006182835258,-0.0949160009622573,-1.0531039237976074,-0.0424560010433197,-4.567500114440918,46.34000015258789,-29.24250030517578
5.423242161048123,-0.0880839973688125,-0.9738039970397948,0.0087839998304843,5.494999885559082,47.442501068115234,-23.502500534057617
5.443478139260989,-0.1124840006232261,-0.9271999597549438,0.0500199981033802,8.802499771118164,46.970001220703125,-15.539999961853027
5.463714117473855,-0.1576239913702011,-0.9225639700889589,0.0741759985685348,7.472499847412109,44.15250015258789,-7.472499847412109
5.483950095686721,-0.2020319998264312,-0.9542839527130128,0.1405439972877502,-0.0350000001490116,46.23500061035156,1.1725000143051147
5.504186073899587,-0.2313119918107986,-1.1058080196380615,0.1944679915904998,-6.002500057220459,50.78499984741211,12.8100004196167
5.5244220521124525,-0.1869039982557296,-1.177788019180298,0.1866599917411804,10.02750015258789,59.92000198364258,19.6875
5.544658030325318,-0.1568920016288757,-1.105563998222351,0.1705559939146042,29.364999771118164,71.10250091552734,19.61750030517578
5.564894008538184,-0.1324919909238815,-1.042855978012085,0.0487999990582466,34.82500076293945,78.47000122070312,18.67250061035156
5.58512998675105,-0.1154119968414306,-1.0177240371704102,-0.0290360003709793,31.989999771118164,94.56999969482422,18.82999992370605
5.605365964963916,-0.1407880038022995,-1.0008879899978638,-0.037331998348236,25.40999984741211,109.42749786376952,18.864999771118164
5.625601943176782,-0.1659199893474578,-0.9933239817619324,0.0102479998022317,21.0,111.6675033569336,16.274999618530273
5.6458379213896475,-0.1864160001277923,-0.9823439717292786,0.0539239980280399,23.957500457763672,111.8249969482422,11.899999618530272
5.666073899602513,-0.2132560014724731,-0.957211971282959,0.0517279990017414,32.567501068115234,114.64250183105467,7.840000152587891
5.686309877815379,-0.2439999878406524,-0.935252010822296,0.0427000001072883,41.58000183105469,115.1675033569336,4.847499847412109
5.706545856028245,-0.2276519984006881,-0.8866959810256958,0.0824719965457916,48.15999984741211,113.17250061035156,3.184999942779541
5.726781834241111,-0.1898320019245147,-0.8996279835700989,0.1010159999132156,48.47499847412109,114.1875,1.6100000143051147
5.747017812453977,-0.1542080044746399,-0.9376919865608216,0.1036999970674514,48.59749984741211,117.00499725341795,-2.712500095367432
5.767253790666842,-0.1227319985628128,-0.9796599745750428,0.1139479950070381,49.70000076293945,120.20750427246094,-9.835000038146973
5.787489768879708,-0.1198039948940277,-1.0025960206985474,0.124439999461174,51.64250183105469,121.16999816894533,-18.357500076293945
5.807725747092574,-0.1373720020055771,-1.022603988647461,0.1317600011825561,52.60499954223633,118.75499725341795,-25.23500061035156
5.82796172530544,-0.1581119894981384,-1.000643968582153,0.1737279891967773,55.49250030517578,115.4124984741211,-28.857500076293945
5.848197703518306,-0.1500599980354309,-0.9833199977874756,0.1837320029735565,55.49250030517578,114.7300033569336,-29.225000381469727
5.8684336817311715,-0.1527439951896667,-0.9730719923973083,0.1805599927902221,54.442501068115234,118.2125015258789,-28.104999542236328
5.888669659944037,-0.1500599980354309,-0.96453195810318,0.1922719925642013,53.4275016784668,119.48999786376952,-27.07250022888184
5.908905638156903,-0.1383479982614517,-0.9574559926986694,0.2042279988527298,54.477500915527344,118.9124984741211,-28.122499465942383
5.929141616369769,-0.1254159957170486,-0.933788001537323,0.2149640023708343,54.70500183105469,119.15750122070312,-31.46500015258789
5.949377594582635,-0.1371279954910278,-0.892795979976654,0.2227720022201538,50.907501220703125,118.2125015258789,-34.212501525878906
5.969613572795501,-0.1617719978094101,-0.8313080072402954,0.2052039951086044,40.775001525878906,114.20500183105467,-35.70000076293945
5.9898495510083665,-0.1856839954853058,-0.8010519742965698,0.2127679884433746,28.13999938964844,109.58499908447266,-35.73500061035156
6.010085529221232,-0.2413159906864166,-0.7224839925765991,0.2298479974269867,15.977499961853027,104.3000030517578,-34.842498779296875
6.030321507434098,-0.2613239884376526,-0.782263994216919,0.2354599982500076,-2.432500123977661,98.41999816894533,-31.255001068115234
6.050557485646964,-0.2569319903850555,-0.9152439832687378,0.3096359968185425,-8.977499961853027,93.625,-26.9325008392334
6.07079346385983,-0.1934919953346252,-1.0169919729232788,0.3430639803409576,-3.447499990463257,89.23249816894531,-25.77750015258789
6.091029442072696,-0.1551840007305145,-1.077015995979309,0.3467240035533905,10.447500228881836,85.33000183105469,-25.725000381469727
6.111265420285561,-0.1261480003595352,-1.019919991493225,0.3416000008583069,25.44499969482422,78.62750244140625,-25.934999465942383
6.131501398498427,-0.1249279975891113,-0.8896239995956421,0.3250080049037933,28.315000534057617,71.57499694824219,-25.1299991607666
6.151737376711293,-0.1173639968037605,-0.8208159804344177,0.2854799926280975,14.927499771118164,66.72750091552734,-21.06999969482422
6.171973354924159,-0.1012599989771843,-0.8335039615631104,0.2981680035591125,2.0299999713897705,68.80999755859375,-12.074999809265137
6.192209333137025,-0.1517679989337921,-0.901091992855072,0.305976003408432,-6.982500076293945,73.36000061035156,-2.240000009536743
6.2124453113498905,-0.2396079897880554,-1.009671926498413,0.3206160068511963,-9.765000343322754,72.80000305175781,4.934999942779541
6.232681289562756,-0.3623400032520294,-1.09116792678833,0.3442839980125427,-2.712500095367432,73.76249694824219,4.829999923706055
6.252917267775622,-0.3777119815349579,-1.1638799905776978,0.2959719896316528,6.632500171661377,63.50749969482422,6.772500038146973
6.273153245988488,-0.3098799884319305,-1.2160959243774414,0.2327760010957718,13.947500228881836,53.39250183105469,7.892499923706055
6.293389224201354,-0.3064639866352081,-1.2863680124282837,0.0710039958357811,8.27750015258789,44.92250061035156,13.125
6.31362520241422,-0.4267559945583343,-1.0997079610824585,0.1546960026025772,-5.039999961853027,21.01749992370605,31.27250099182129
6.3338611806270855,-0.3586799800395965,-1.0033279657363892,0.1720200031995773,-8.609999656677246,16.327499389648438,30.747499465942383
6.354097158839951,-0.2476599961519241,-0.913047969341278,0.1324919909238815,-7.647500038146973,14.350000381469728,16.309999465942383
6.374333137052817,-0.1683599948883056,-0.8527799844741821,0.047335997223854,-10.395000457763672,5.565000057220459,-3.640000104904175
6.394569115265683,-0.1259039938449859,-0.7934879660606384,-0.0653920024633407,-14.350000381469728,-6.037499904632568,-20.737499237060547
6.414805093478549,-0.1015039980411529,-0.7246800065040588,-0.128831997513771,-21.01749992370605,-13.072500228881836,-27.317501068115234
6.435041071691415,-0.0841799974441528,-0.6968640089035034,-0.1219999939203262,-36.88999938964844,-12.197500228881836,-21.50749969482422
6.45527704990428,-0.134443998336792,-0.802515983581543,-0.0944279953837394,-54.477500915527344,-6.474999904632568,-9.100000381469728
6.475513028117146,-0.218868002295494,-0.9674599766731262,-0.0153719997033476,-58.852500915527344,-2.765000104904175,3.674999952316284
6.495749006330012,-0.2659600079059601,-1.1960879564285278,0.0290360003709793,-50.435001373291016,-3.377500057220459,10.395000457763672
6.515984984542878,-0.2396079897880554,-1.199747920036316,0.0900359973311424,-24.184999465942383,-11.147500038146973,4.199999809265137
6.536220962755744,-0.1915400028228759,-1.099463939666748,0.0492879971861839,-14.350000381469728,-25.042499542236328,-4.585000038146973
6.5564569409686095,-0.1459119915962219,-1.0623760223388672,0.0119559997692704,-16.082500457763672,-36.032501220703125,-9.3100004196167
6.576692919181475,-0.1332239955663681,-1.0245559215545654,0.0151279997080564,-19.145000457763672,-40.12749862670898,-12.582500457763672
6.596928897394341,-0.1407880038022995,-1.026263952255249,0.0114679997786879,-25.042499542236328,-38.727500915527344,-16.344999313354492
6.617164875607207,-0.1117519959807396,-0.9901520013809204,0.0290360003709793,-26.18000030517578,-34.14250183105469,-16.83500099182129
6.637400853820073,-0.0448959991335868,-0.9679479598999025,-0.003171999938786,-24.90250015258789,-32.07749938964844,-13.125
6.657636832032939,-0.0527039989829063,-0.9293959736824036,0.0102479998022317,-22.1200008392334,-26.530000686645508,-9.887499809265137
6.6778728102458045,-0.0941839963197708,-0.9242720007896424,-0.0112239997833967,-23.012500762939453,-27.125,-7.0
6.69810878845867,-0.1849519908428192,-0.9062159657478333,-0.0097599998116493,-20.545000076293945,-29.399999618530277,-6.772500038146973
6.718344766671536,-0.2383880019187927,-0.9030439853668212,0.0146399997174739,-24.53499984741211,-38.0625,-7.402500152587891
6.738580744884402,-0.2337519973516464,-0.9506239891052246,0.0226919986307621,-30.34499931335449,-48.10750198364258,-7.542500019073486
6.758816723097268,-0.1617719978094101,-0.9884439706802368,0.0114679997786879,-31.5,-54.14500045776367,-5.389999866485596
6.779052701310134,-0.090279996395111,-1.0330959558486938,-0.0341599993407726,-30.975000381469727,-55.82500076293945,-0.262499988079071
6.799288679522999,-0.0558759979903698,-1.0187000036239624,-0.0492879971861839,-24.2549991607666,-59.587501525878906,5.337500095367432
6.819524657735865,-0.0505079999566078,-0.9762439727783204,-0.0556319989264011,-19.54750061035156,-63.80500030517578,9.170000076293944
6.839760635948731,-0.0546559989452362,-0.929152011871338,-0.0304999984800815,-19.4950008392334,-64.3125,11.619999885559082
6.859996614161597,-0.0263519994914531,-0.9313479661941528,-0.0322079993784427,-25.637500762939453,-63.61249923706055,14.157500267028809
6.880232592374463,0.0192760005593299,-0.9594079852104188,-0.0739319995045661,-30.799999237060547,-61.26750183105469,15.417500495910645
6.9004685705873285,0.0446520000696182,-0.9889319539070128,-0.1032119989395141,-33.897499084472656,-57.8025016784668,15.452500343322754
6.920704548800194,0.0736880004405975,-1.0452959537506104,-0.1556719988584518,-34.93000030517578,-55.42250061035156,13.107500076293944
6.94094052701306,0.0314759984612464,-1.077991962432861,-0.1966639906167984,-32.217498779296875,-55.93000030517578,9.55500030517578
6.961176505225926,-0.0719799995422363,-1.0611560344696045,-0.1661639958620071,-19.967500686645508,-57.04999923706055,4.900000095367432
6.981412483438792,-0.0317199975252151,-1.015771985054016,-0.1485960036516189,-9.712499618530272,-66.62249755859375,3.377500057220459
7.001648461651658,-0.0385520011186599,-1.0504199266433716,-0.1803160011768341,-3.552500009536743,-70.29750061035156,2.940000057220459
7.0218844398645235,-0.1232199966907501,-1.042367935180664,-0.2195999920368194,2.5199999809265137,-70.59500122070312,0.2275000065565109
7.042120418077389,-0.3137840032577514,-1.044319987297058,-0.2483920007944107,4.147500038146973,-73.36000061035156,-8.382499694824219
7.062356396290255,-0.4411519765853882,-1.039927959442139,-0.1476199924945831,2.694999933242798,-83.44000244140625,-21.665000915527344
7.082592374503121,-0.3972319960594177,-1.0721359252929688,-0.065880000591278,-1.3650000095367432,-94.2375030517578,-32.025001525878906
7.102828352715987,-0.2776719927787781,-1.0655479431152344,-0.0156159996986389,-0.3849999904632568,-87.69249725341797,-26.127500534057617
7.123064330928853,-0.218868002295494,-1.050663948059082,-0.0153719997033476,-6.142499923706055,-72.7125015258789,-2.4674999713897705
7.143300309141718,-0.3015840053558349,-0.9842959642410278,0.0378200002014637,-6.824999809265137,-66.51750183105469,20.63249969482422
7.163536287354584,-0.4296839833259582,-0.8552199602127075,0.032940000295639,-0.7350000143051147,-72.04750061035156,32.689998626708984
7.18377226556745,-0.508251965045929,-0.8308199644088745,0.0053679998964071,0.3675000071525574,-75.7925033569336,32.3224983215332
7.204008243780316,-0.5860880017280579,-0.9035319685935974,-0.0029279999434947,3.902499914169312,-82.02249908447266,22.46999931335449
7.224244221993182,-0.4387120008468628,-0.9562360048294068,0.1710439920425415,3.184999942779541,-96.70500183105467,14.052499771118164
7.2444802002060475,-0.3115879893302917,-1.0545679330825806,0.2130119949579239,3.954999923706055,-95.84750366210938,13.807499885559082
7.264716178418913,-0.2871879935264587,-0.9169519543647766,0.1478639990091323,34.58000183105469,-82.75749969482422,11.164999961853027
7.284952156631779,-0.2657159864902496,-0.7817760109901428,0.0534359999001026,43.435001373291016,-82.05750274658203,11.34000015258789
7.305188134844645,-0.2069119960069656,-0.7483479976654053,-0.0029279999434947,22.45249938964844,-89.73999786376953,12.600000381469728
7.325424113057511,-0.2047159969806671,-0.7756760120391846,-0.0497759990394115,-0.1749999970197677,-93.50250244140624,9.887499809265137
7.345660091270377,-0.2274079918861389,-0.8447279930114746,0.0241560004651546,-19.19750022888184,-90.40499877929688,4.182499885559082
7.3658960694832425,-0.1900759935379028,-1.0001559257507324,0.0692960023880004,-33.494998931884766,-84.26249694824219,-2.940000057220459
7.386132047696108,-0.1615279912948608,-1.1006839275360107,0.0678320005536079,-29.487499237060547,-77.85749816894531,-8.574999809265137
7.406368025908974,-0.1439599990844726,-1.108247995376587,0.0917439982295036,-12.8100004196167,-75.42500305175781,-12.074999809265137
7.42660400412184,-0.1605519950389862,-1.157047986984253,0.0617319978773593,-0.7699999809265137,-74.0425033569336,-11.44499969482422
7.446839982334706,-0.2637639939785003,-1.056764006614685,0.0380639992654323,18.23500061035156,-71.59249877929688,-11.585000038146973
7.467075960547572,-0.3486759960651397,-0.9794159531593324,-0.0241560004651546,21.104999542236328,-76.6500015258789,-13.020000457763672
7.487311938760437,-0.3398919999599457,-0.8913319706916809,-0.018300000578165,17.010000228881836,-83.84249877929688,-11.795000076293944
7.507547916973303,-0.2281399965286255,-0.8976759910583496,0.0165919996798038,7.577499866485596,-81.9000015258789,-6.369999885559082
7.527783895186169,-0.1647000014781952,-0.8937720060348511,-0.0497759990394115,0.4550000131130218,-52.23749923706055,1.347499966621399
7.548019873399035,-0.196175992488861,-0.8574159741401672,-0.057583998888731,-5.949999809265137,-49.4900016784668,2.6424999237060547
7.568255851611901,-0.1973959952592849,-0.8815720081329346,-0.0856439992785453,-19.092500686645508,-51.869998931884766,2.799999952316284
7.5884918298247666,-0.2291159927845001,-0.9513559937477112,-0.0956479981541633,-23.20499992370605,-49.61249923706055,0.3675000071525574
7.608727808037632,-0.2486359924077987,-0.973315954208374,-0.1076039969921112,-18.217500686645508,-48.91249847412109,-3.0450000762939453
7.628963786250498,-0.228872001171112,-0.9745360016822816,-0.1134599968791008,-10.762499809265137,-47.932498931884766,-4.882500171661377
7.649199764463364,-0.2259439975023269,-0.9413520097732544,-0.1168759986758232,-3.762500047683716,-43.88999938964844,-4.795000076293945
7.66943574267623,-0.1937360018491745,-0.8984079957008362,-0.1363959908485412,-0.5600000023841858,-40.25,-5.302500247955322
7.689671720889096,-0.1686040014028549,-0.8198399543762207,-0.1500599980354309,0.1924999952316284,-35.50749969482422,-5.722499847412109
7.7099076991019615,-0.1493279933929443,-0.8198399543762207,-0.1163880005478859,-1.0325000286102295,-31.167499542236328,-7.367499828338623
7.730143677314827,-0.0819839984178543,-0.8896239995956421,-0.0158599987626075,-7.857500076293945,-25.707500457763672,-5.197500228881836
7.750379655527693,-0.0424560010433197,-1.1702239513397217,0.0363559983670711,-25.479999542236328,-15.645000457763672,9.904999732971191
7.770615633740559,-0.1910519897937774,-1.3720120191574097,0.0602679997682571,-13.982500076293944,1.5750000476837158,24.780000686645508
7.790851611953425,-0.0656360015273094,-1.2165839672088623,0.3010959923267364,35.9275016784668,-5.897500038146973,19.565000534057617
7.811087590166291,0.0407480001449584,-1.060912013053894,0.2515639960765838,56.84000015258789,-16.4325008392334,2.0999999046325684
7.831323568379156,-0.0983319953083992,-1.050176024436951,0.2947520017623901,38.290000915527344,-16.520000457763672,-4.025000095367432
7.851559546592022,-0.2554679811000824,-1.2585519552230835,0.4311479926109314,-0.332500010728836,-15.522500038146973,7.71750020980835
7.871795524804888,-0.3123199939727783,-1.4137359857559204,0.4623799920082092,-18.1825008392334,-2.134999990463257,26.792499542236328
7.892031503017754,-0.2005679905414581,-1.2983239889144895,0.4282200038433075,0.875,-0.5600000023841858,36.75
7.91226748123062,-0.0065879998728632,-0.8164240121841431,0.3359879851341247,12.074999809265137,-8.1899995803833,15.627500534057615
7.932503459443486,0.0190319996327161,-0.8632720112800598,0.2000799924135208,-22.27750015258789,-12.61750030517578,-15.260000228881836
7.952739437656351,0.0131759997457265,-0.9945439696311952,0.0541680008172988,-38.43000030517578,-11.585000038146973,-40.86249923706055
7.972975415869217,-0.0568519979715347,-1.0699399709701538,0.0165919996798038,-42.57749938964844,-0.0525000020861625,-46.47999954223633
7.993211394082083,-0.0297679994255304,-1.0606679916381836,0.1754359900951385,-33.3025016784668,7.454999923706055,-38.97249984741211
8.01344737229495,-0.0126879997551441,-0.928663969039917,0.2925559878349304,-9.414999961853027,11.77750015258789,-34.42250061035156
8.033683350507816,0.0573399998247623,-0.8291119933128357,0.2823079824447632,6.860000133514404,12.670000076293944,-31.377500534057617
8.053919328720683,0.0644159987568855,-0.7283399701118469,0.2798680067062378,15.505000114440918,9.835000038146973,-27.545000076293945
8.07415530693355,0.0222040005028247,-0.6836879849433899,0.2652280032634735,14.524999618530272,9.730000495910645,-22.26000022888184
8.094391285146417,-0.023667998611927,-0.7029640078544617,0.2300919890403747,5.949999809265137,12.949999809265137,-14.454999923706056
8.114627263359283,-0.0910120010375976,-0.8503400087356567,0.1827559918165207,-7.017499923706055,14.927499771118164,-5.6875
8.13486324157215,-0.0614879988133907,-1.112396001815796,0.1871479898691177,-7.595000267028809,21.875,13.142499923706056
8.155099219785017,-0.0932080000638961,-1.0845799446105957,0.1527439951896667,0.6299999952316284,26.774999618530277,17.6924991607666
8.175335197997883,-0.1149239987134933,-1.0089399814605713,0.1363959908485412,5.599999904632568,28.752500534057617,19.040000915527344
8.19557117621075,-0.0961359962821006,-0.9916160106658936,0.0971119999885559,3.5,32.91749954223633,17.86750030517578
8.215807154423617,-0.0483120009303092,-0.9767319560050964,0.0590479969978332,-0.5425000190734863,41.38750076293945,14.630000114440918
8.236043132636484,-0.0451399981975555,-0.9969840049743652,0.0270840004086494,0.6474999785423279,44.99250030517578,11.8125
8.25627911084935,-0.0539239980280399,-0.9938119649887084,0.0202520005404949,5.809999942779541,39.68999862670898,10.02750015258789
8.276515089062217,-0.0727119967341423,-0.9562360048294068,0.0004879999905824,12.057499885559082,32.84749984741211,8.207500457763672
8.296751067275084,-0.0978439971804618,-0.948915958404541,-0.0180559996515512,13.702500343322754,33.23250198364258,8.032500267028809
8.31698704548795,-0.0873520001769065,-0.9103639721870422,-0.0570959970355033,16.607500076293945,36.27750015258789,10.797499656677246
8.337223023700817,-0.0941839963197708,-0.835211992263794,-0.0717360004782676,20.247499465942383,40.23250198364258,15.75
8.357459001913684,-0.0839359983801841,-0.8303319811820984,-0.1071159988641738,15.977499961853027,44.88750076293945,22.5575008392334
8.37769498012655,-0.0975999981164932,-0.8696159720420837,-0.2454639971256256,8.032500267028809,53.3224983215332,29.225000381469727
8.397930958339417,-0.1607960015535354,-0.9481839537620544,-0.2561999857425689,6.422500133514404,61.6875,32.23500061035156
8.418166936552284,-0.2808440029621124,-1.0067440271377563,-0.118827998638153,0.0700000002980232,60.04249954223633,21.45499992370605
8.43840291476515,-0.3681959807872772,-1.1646119356155396,0.0548999980092048,-18.479999542236328,52.185001373291016,-4.09499979019165
8.458638892978017,-0.5382639765739441,-1.2617239952087402,0.183243989944458,-11.567500114440918,31.167499542236328,-27.26499938964844
8.478874871190884,-0.5777919888496399,-1.1143479347229004,0.3769800066947937,25.51499938964844,-0.1400000005960464,-38.41249847412109
8.49911084940375,-0.416020005941391,-0.8830359578132629,0.3235439956188202,33.1974983215332,-20.037500381469727,-33.810001373291016
8.519346827616618,-0.2232600003480911,-0.7886079549789429,0.2535159885883331,22.69750022888184,-4.96999979019165,-11.357500076293944
8.539582805829484,-0.0344039984047412,-0.7659159898757935,0.2998760044574737,8.329999923706055,-0.5600000023841858,11.567500114440918
8.559818784042351,-0.1466439962387085,-0.8820599913597107,0.4062599837779999,-19.61750030517578,5.84499979019165,13.702500343322754
8.580054762255218,-0.3701480031013489,-1.203163981437683,0.423583984375,-45.34249877929688,-1.2074999809265137,-1.0149999856948853
8.600290740468084,-0.4165079891681671,-1.3561519384384155,0.4126040041446686,-31.184999465942383,-11.672499656677246,-10.6225004196167
8.620526718680951,-0.2840159833431244,-1.4169080257415771,0.2364359945058822,-9.029999732971191,-5.074999809265137,-11.0600004196167
8.640762696893818,-0.293287992477417,-1.3246759176254272,0.3557519912719726,7.927500247955322,2.1875,-9.642499923706056
8.660998675106685,-0.3101239800453186,-1.2146320343017578,0.4257799983024597,12.600000381469728,-17.360000610351562,-4.042500019073486
8.681234653319551,-0.2591280043125152,-0.9999119639396667,0.4643319845199585,29.17250061035156,-30.59000015258789,8.382499694824219
8.701470631532418,-0.2225279957056045,-0.9054839611053468,0.4206559956073761,39.72499847412109,-28.6825008392334,22.3125
8.721706609745285,-0.1295640021562576,-0.7964159846305847,0.3613640069961548,47.372501373291016,-27.020000457763672,30.48500061035156
8.741942587958151,-0.0100039998069405,-0.5592479705810547,0.2496119886636734,30.975000381469727,-12.3725004196167,25.549999237060547
8.762178566171018,-0.037331998348236,-0.5787680149078369,0.2088640034198761,9.25749969482422,-10.079999923706056,12.670000076293944
8.782414544383885,-0.0780799984931945,-0.6219559907913208,0.1981279999017715,-9.537500381469728,-6.860000133514404,1.5225000381469729
8.802650522596752,-0.1073599979281425,-0.7629879713058472,0.2032520025968551,-30.030000686645508,-3.1675000190734863,-5.740000247955322
8.822886500809618,-0.1583559960126876,-0.9069479703903198,0.2632759809494018,-41.352500915527344,-1.0149999856948853,-8.925000190734863
8.843122479022485,-0.2396079897880554,-1.0716480016708374,0.317931979894638,-39.935001373291016,0.4200000166893005,-7.682499885559082
8.863358457235352,-0.293287992477417,-1.1121519804000854,0.3267160058021545,-23.450000762939453,0.1574999988079071,-1.8025000095367432
8.883594435448218,-0.2893840074539184,-1.1143479347229004,0.2518079876899719,-11.6899995803833,-6.037499904632568,2.887500047683716
8.903830413661085,-0.2569319903850555,-1.0726239681243896,0.1981279999017715,-5.84499979019165,-15.119999885559082,4.865000247955322
8.924066391873952,-0.2142319977283477,-0.9994239807128906,0.1951999962329864,-4.462500095367432,-20.42250061035156,4.952499866485596
8.944302370086818,-0.1829999983310699,-0.9564799666404724,0.1895879954099655,-5.144999980926514,-21.29750061035156,6.159999847412109
8.964538348299685,-0.1651879996061325,-0.9298839569091796,0.1847079992294311,-5.827499866485596,-18.82999992370605,7.787499904632568
8.984774326512552,-0.1698240041732788,-0.9503799676895142,0.196175992488861,-8.4350004196167,-15.574999809265137,10.56999969482422
9.005010304725419,-0.1920280009508133,-0.9755119681358336,0.2320439964532852,-6.894999980926514,-13.755000114440918,13.107500076293944
9.025246282938285,-0.2108159959316253,-0.9840520024299622,0.249123990535736,-2.9749999046325684,-13.895000457763672,13.300000190734863
9.045482261151152,-0.210327997803688,-0.9720959663391112,0.2845039963722229,2.6600000858306885,-15.015000343322754,12.092499732971191
9.065718239364019,-0.1700679957866668,-0.9513559937477112,0.2945079803466797,5.6875,-16.047500610351562,10.657500267028809
9.085954217576885,-0.1356640011072158,-0.9372040033340454,0.2920680046081543,6.107500076293945,-13.177499771118164,9.327500343322754
9.106190195789752,-0.124439999461174,-0.9367159605026244,0.2896279990673065,4.795000076293945,-8.925000190734863,8.680000305175781
9.126426174002619,-0.1239520013332367,-0.932811975479126,0.2752319872379303,4.130000114440918,-5.880000114440918,7.559999942779541
9.146662152215486,-0.1407880038022995,-0.9315919876098632,0.2710839807987213,5.144999980926514,-2.870000123977661,6.142499923706055
9.166898130428352,-0.1520119905471801,-0.9220759868621826,0.2757200002670288,6.40500020980835,-1.0325000286102295,4.8125
9.187134108641219,-0.1620160043239593,-0.912559986114502,0.289139986038208,6.474999904632568,0.3849999904632568,3.8324999809265137
9.207370086854086,-0.1708000004291534,-0.8935279846191406,0.2989000082015991,3.569999933242798,0.6299999952316284,3.430000066757202
9.227606065066952,-0.177387997508049,-0.9018239974975586,0.3142719864845276,0.1574999988079071,0.5950000286102295,3.0625
9.24784204327982,-0.1668960005044937,-0.901091992855072,0.3437959849834442,1.837499976158142,1.75,2.2225000858306885
9.268078021492686,-0.1512800008058548,-0.8923079967498779,0.3559959828853607,2.9049999713897705,2.432500123977661,0.9100000262260436
9.288313999705553,-0.1385920047760009,-0.8871839642524719,0.3630719780921936,1.4700000286102295,4.514999866485596,-0.262499988079071
9.30854997791842,-0.1427399963140487,-0.8823039531707764,0.3667320013046264,0.6825000047683716,7.980000019073486,-1.4175000190734863
9.328785956131286,-0.1690919995307922,-0.8698599934577942,0.3623400032520294,0.8224999904632568,10.920000076293944,-1.924999952316284
9.349021934344153,-0.2308239936828613,-0.8620519638061523,0.3718560039997101,-1.277500033378601,14.0,-1.6449999809265137
9.36925791255702,-0.2371679991483688,-0.8647359609603882,0.3857640027999878,-3.6050000190734863,14.052499771118164,0.0525000020861625
9.389493890769886,-0.2654719948768616,-0.8898679614067078,0.387715995311737,-6.457499980926514,16.082500457763672,1.9600000381469729
9.409729868982753,-0.3050000071525574,-0.97843998670578,0.3074399828910827,-10.657500267028809,19.950000762939453,4.077499866485596
9.42996584719562,-0.3337920010089874,-1.1194720268249512,0.2803559899330139,-10.307499885559082,25.14750099182129,8.539999961853027
9.450201825408486,-0.3811279833316803,-1.2209759950637815,0.2881639897823334,-2.747499942779541,23.20499992370605,13.755000114440918
9.470437803621353,-0.3838119804859161,-1.29368793964386,0.2928000092506408,10.86750030517578,19.739999771118164,18.51499938964844
9.49067378183422,-0.379175990819931,-1.2841719388961792,0.2754760086536407,31.149999618530277,17.412500381469727,23.747499465942383
9.510909760047086,-0.403331995010376,-1.136307954788208,0.1876360028982162,41.14250183105469,10.1850004196167,26.967500686645508
9.531145738259953,-0.3786879777908325,-0.8993839621543884,0.2393639981746673,36.78499984741211,3.289999961853028,24.86750030517578
9.55138171647282,-0.3601439893245697,-0.7312679886817932,0.3111000061035156,23.100000381469727,5.110000133514404,10.587499618530272
9.571617694685687,-0.3147599995136261,-0.746396005153656,0.3211039900779724,1.627500057220459,6.492499828338623,-9.65999984741211
9.591853672898553,-0.2437559962272644,-0.9088999629020692,0.2191119939088821,-13.6850004196167,2.887500047683716,-23.83500099182129
9.61208965111142,-0.1971519887447357,-0.9635559916496276,0.1129719987511634,-12.355000495910645,2.6075000762939453,-34.38750076293945
9.632325629324287,-0.1798280030488968,-0.9386679530143738,-0.0256199985742568,-11.602499961853027,-0.8400000333786011,-38.37749862670898
9.652561607537153,-0.2042279988527298,-0.848143994808197,-0.0724679976701736,-22.26000022888184,-4.585000038146973,-34.1775016784668
9.67279758575002,-0.1298079937696457,-0.9335439801216124,-0.0932080000638961,-42.42000198364258,-8.907500267028809,-23.65999984741211
9.693033563962887,-0.0897919982671737,-0.8893799781799316,-0.0024399999529123,-31.7450008392334,-4.269999980926514,-17.342500686645508
9.713269542175754,-0.085156001150608,-0.8208159804344177,0.0170799996703863,-26.61750030517578,1.8200000524520876,-18.67250061035156
9.73350552038862,-0.1005280017852783,-0.8679080009460449,0.0243999995291233,-36.994998931884766,3.3424999713897705,-25.44499969482422
9.753741498601487,-0.1483519971370697,-1.0682319402694702,0.0461159981787204,-49.78749847412109,0.6650000214576721,-32.54999923706055
9.773977476814354,-0.1956879943609237,-1.2285399436950684,0.100283995270729,-42.75249862670898,-3.972500085830689,-38.4474983215332
9.79421345502722,-0.2149640023708343,-1.231711983680725,0.1351760029792785,-23.25749969482422,-11.707500457763672,-44.76499938964844
9.814449433240087,-0.1378600001335144,-1.0823839902877808,0.0927200019359588,4.409999847412109,-25.1299991607666,-46.7599983215332
9.834685411452954,-0.0744199976325035,-0.9374479651451112,0.1139479950070381,27.177499771118164,-29.854999542236328,-46.20000076293945
9.85492138966582,-0.0324519984424114,-0.8073959946632385,0.124439999461174,33.775001525878906,-35.682498931884766,-44.08250045776367
9.875157367878687,-0.0085399998351931,-0.7161399722099304,0.1298079937696457,24.43000030517578,-34.96500015258789,-40.26750183105469
9.895393346091554,0.0161039996892213,-0.6863719820976257,0.1337119936943054,5.460000038146973,-27.14249992370605,-32.54999923706055
9.91562932430442,0.0509959980845451,-0.6946679949760437,0.1129719987511634,-11.164999961853027,-11.6899995803833,-21.315000534057617
9.935865302517287,0.0292799994349479,-0.7446879744529724,0.1578679978847503,-29.137500762939453,2.5374999046325684,-8.71500015258789
9.956101280730154,-0.0380639992654323,-0.9437919855117798,0.1664080023765564,-35.787498474121094,-8.329999923706055,7.892499923706055
9.97633725894302,-0.0670999959111213,-0.895967960357666,0.152988001704216,-25.637500762939453,-11.042500495910645,14.40250015258789
9.996573237155888,-0.085887998342514,-0.8915759921073914,0.2037400007247924,-25.00749969482422,-18.14750099182129,21.542499542236328
10.016809215368754,-0.0292799994349479,-0.9708759784698486,0.264983981847763,-27.77250099182129,-23.13500022888184,27.545000076293945
10.037045193581621,-0.0444080010056495,-1.1929160356521606,0.1971519887447357,-32.025001525878906,-16.065000534057617,31.587499618530277
10.057281171794488,-0.3154920041561126,-1.3351680040359497,0.2044719904661178,-27.107500076293945,-17.3075008392334,24.07999992370605
10.077517150007354,-0.134443998336792,-1.3700599670410156,0.3115879893302917,-12.827500343322754,-44.04750061035156,10.482500076293944
10.097753128220221,0.0400159992277622,-1.3578599691390991,0.3003639876842499,5.337500095367432,-45.43000030517578,-5.704999923706055
10.117989106433088,0.1207799986004829,-1.1170319318771362,0.3189080059528351,15.417500495910645,-35.752498626708984,-20.107500076293945
10.138225084645955,0.1866599917411804,-1.2204879522323608,0.1893439888954162,-13.0024995803833,-35.94499969482422,-19.075000762939453
10.158461062858821,0.2442439943552017,-1.5137759447097778,0.1224879994988441,-30.450000762939453,-20.107500076293945,-16.3799991607666
10.178697041071688,0.0795440003275871,-1.4657080173492432,0.2178919911384582,-5.565000057220459,-5.215000152587891,-22.592500686645508
10.198933019284555,0.0819839984178543,-1.374451994895935,0.1995919942855835,18.32250022888184,-14.699999809265137,-31.20249938964844
10.219168997497421,0.142984002828598,-1.0814080238342283,-0.0729559957981109,46.98749923706055,-5.320000171661377,-27.52750015258789
10.239404975710288,0.1041879951953888,-0.8232559561729431,-0.1576239913702011,57.400001525878906,15.71500015258789,-15.24250030517578
10.259640953923155,-0.0175679996609687,-0.7146759629249573,-0.2266760021448135,52.09749984741211,10.307499885559082,-6.422500133514404
10.279876932136021,-0.1861719936132431,-0.6431840062141418,-0.1339560002088546,45.692501068115234,-1.1375000476837158,-3.6575000286102295
10.300112910348888,-0.3403799831867218,-0.8383839726448059,-0.0975999981164932,21.13999938964844,1.8550000190734863,-4.147500038146973
10.320348888561755,-0.4252919852733612,-1.016503930091858,0.0544119998812675,5.284999847412109,24.6924991607666,4.409999847412109
10.340584866774622,-0.3259840011596679,-1.092144012451172,0.1097999960184097,3.377500057220459,23.15250015258789,17.5
10.360820844987488,-0.0934519991278648,-1.0865319967269895,0.0502640008926391,12.8100004196167,16.957500457763672,28.420000076293945
10.381056823200355,0.0368440002202987,-1.055299997329712,0.0187879987061023,18.67250061035156,38.81499862670898,35.36750030517578
10.401292801413222,0.0253759995102882,-0.932811975479126,0.0607559978961944,33.38999938964844,38.67499923706055,42.665000915527344
10.421528779626088,-0.0156159996986389,-0.7776280045509338,0.1112639978528022,38.63999938964844,31.36000061035156,40.75749969482422
10.441764757838955,-0.0436760000884532,-0.7500559687614441,0.1337119936943054,27.05500030517578,26.89750099182129,37.88750076293945
10.462000736051822,-0.1554279923439026,-0.8561959862709045,0.2191119939088821,26.424999237060547,36.959999084472656,38.04500198364258
10.482236714264689,-0.1800719946622848,-0.7544479966163635,0.2803559899330139,50.400001525878906,43.102500915527344,30.415000915527344
10.502472692477555,-0.1973959952592849,-0.5831599831581116,0.2286279946565628,51.20500183105469,41.54500198364258,20.5625
10.522708670690422,-0.1983719915151596,-0.5433880090713501,0.1888559907674789,41.317501068115234,33.897499084472656,15.837499618530272
10.542944648903289,-0.1590880006551742,-0.440663993358612,0.1805599927902221,27.895000457763672,15.539999961853027,5.740000247955322
10.563180627116155,-0.1639679968357086,-0.5414360165596008,0.2457079887390136,-46.23500061035156,15.505000114440918,6.615000247955322
10.583416605329022,-0.2727919816970825,-0.9464759826660156,0.3623400032520294,-73.5875015258789,35.9275016784668,10.46500015258789
10.603652583541889,-0.3032920062541961,-1.297104001045227,0.5158159732818604,-54.51250076293945,55.10750198364258,10.640000343322754
10.623888561754756,-0.2330199927091598,-1.5554999113082886,0.5846239924430847,1.9600000381469729,54.95000076293945,2.6424999237060547
10.644124539967622,-0.4953199923038482,-1.5686759948730469,0.4926359951496124,64.8550033569336,52.76250076293945,-2.414999961853028
10.664360518180489,-0.6148799657821655,-1.283684015274048,0.5204519629478455,77.48999786376953,25.690000534057617,6.579999923706055
10.684596496393356,-0.559004008769989,-1.112396001815796,0.5936520099639893,62.02000045776367,2.6075000762939453,19.600000381469727
10.704832474606222,-0.5141080021858215,-1.1114200353622437,0.4116279780864715,43.64500045776367,10.289999961853027,28.315000534057617
10.72506845281909,-0.4638440012931824,-1.5103600025177002,0.2967039942741394,36.15499877929688,15.609999656677246,27.63249969482422
10.745304431031956,-0.3952800035476684,-1.45033597946167,0.147376000881195,69.63249969482422,1.3650000095367432,17.815000534057617
10.765540409244823,-0.2913359999656677,-0.7107719779014587,-0.1856839954853058,78.61000061035156,-10.797499656677246,2.134999990463257
10.78577638745769,-0.2620559930801391,-0.6902759671211243,-0.046604000031948,38.86750030517578,1.3125,-0.612500011920929
10.806012365670556,0.0524599999189376,-0.8823039531707764,-0.0285479985177516,-2.7300000190734863,7.297500133514404,0.3849999904632568
10.826248343883423,0.1417640000581741,-0.969655990600586,-0.0805199965834617,-31.71000099182129,24.44750022888184,0.875
10.84648432209629,-0.0470919981598854,-0.8561959862709045,-0.090279996395111,-60.130001068115234,30.76499938964844,-5.599999904632568
10.866720300309156,-0.3352559804916382,-0.6060959696769714,0.0278159994632005,-97.49250030517578,38.185001373291016,-21.787500381469727
10.886956278522023,-0.2474159896373748,-1.3234559297561646,0.1085800006985664,-160.0550079345703,10.640000343322754,-26.18000030517578
10.90719225673489,-0.0819839984178543,-1.290516018867493,0.1890999972820282,-107.55500030517578,-8.137499809265137,-33.810001373291016
10.927428234947756,-0.0688079968094825,-0.80349200963974,0.273279994726181,-39.39250183105469,-6.632500171661377,-49.54249954223633
10.947664213160623,-0.0893040001392364,-0.6009719967842102,0.1720200031995773,-26.84499931335449,-6.037499904632568,-56.89250183105469
10.96790019137349,-0.1354199945926666,-0.6424520015716553,0.1542080044746399,-23.799999237060547,-12.477499961853027,-58.17000198364258
10.988136169586356,-0.1156559959053993,-0.7256559729576111,0.0729559957981109,-22.9424991607666,-34.772499084472656,-57.76750183105469
11.008372147799223,0.0339160002768039,-0.6143919825553894,0.0590479969978332,-3.4649999141693115,-46.25249862670898,-48.720001220703125
11.02860812601209,0.018300000578165,-0.5975559949874878,0.0507519990205764,-1.0325000286102295,-32.40999984741211,-29.225000381469727
11.048844104224957,-0.1227319985628128,-0.5097159743309021,0.2505879998207092,11.4975004196167,-25.8125,-4.497499942779541
11.069080082437823,-0.0100039998069405,-0.5348479747772217,0.1622599959373474,-0.8575000166893005,-29.9950008392334,12.442500114440918
11.08931606065069,0.1883679926395416,-0.510204017162323,0.0470919981598854,-12.967499732971191,-17.045000076293945,19.372499465942383
11.109552038863557,0.314516007900238,-0.7122359871864319,-0.1481079906225204,-49.50749969482422,7.332499980926514,23.729999542236328
11.129788017076423,0.3213479816913605,-0.8164240121841431,-0.3013399839401245,-51.02999877929688,21.47249984741211,23.55500030517578
11.15002399528929,0.2627879977226257,-0.8059319853782654,-0.2925559878349304,-27.77250099182129,62.58000183105469,16.065000534057617
11.170259973502157,-0.0243999995291233,-0.3201279938220978,0.7261439561843872,100.92250061035156,80.91999816894531,-22.295000076293945
11.190495951715024,-0.0778359994292259,-0.1105320006608963,0.4555479884147644,42.13999938964844,71.38249969482422,-36.48749923706055
11.21073192992789,-0.018300000578165,-0.1571359932422638,-0.1185839995741844,-27.229999542236328,104.2125015258789,-45.02750015258789
11.230967908140757,0.1271239966154098,-0.2052039951086044,-0.5033720135688782,0.7524999976158142,116.32250213623048,-40.442501068115234
11.251203886353624,0.1449359953403473,0.0583159998059272,-0.7263879776000977,20.475000381469727,139.24749755859375,-34.93000030517578
11.27143986456649,-0.0602679997682571,0.1629920005798339,-0.2547360062599182,-38.5525016784668,173.8625030517578,-29.067501068115234
11.291675842779357,-0.4274879992008209,-0.8844999670982361,0.3101239800453186,-40.1974983215332,180.3374938964844,9.69499969482422
11.311911820992224,-0.4704319834709167,-0.5233799815177917,-0.2705959975719452,0.8050000071525574,101.6750030517578,-49.227500915527344
11.33214779920509,-0.4055279791355133,-0.680027961730957,-0.6348879933357239,-19.6875,42.26250076293945,-96.04000091552734
11.352383777417957,-0.5006880164146423,-1.1748600006103516,-0.7890959978103638,-54.022499084472656,69.9124984741211,-92.2074966430664
11.372619755630824,-0.1939799934625625,-1.6679840087890625,-0.7734799981117249,-86.67749786376953,50.27750015258789,-75.49500274658203
11.39285573384369,0.1600639969110489,-2.607383966445923,-0.9481839537620544,-127.36499786376952,35.36750030517578,-37.59000015258789
11.413091712056557,0.0885719954967498,-3.408679962158203,-2.0781478881835938,-168.12249755859375,19.31999969482422,-27.63249969482422
11.433327690269424,-0.1256600022315979,-4.1809401512146,-2.335324048995972,-280.9974975585937,28.997499465942383,-29.540000915527344
11.45356366848229,0.0090279998257756,-3.3140079975128174,-0.4433479905128479,-200.84750366210935,-15.592499732971191,-25.09499931335449
11.473799646695158,0.0322079993784427,-0.9223200082778932,-0.1820240020751953,-145.0749969482422,-194.82749938964844,48.47499847412109
11.494035624908024,0.0412359982728958,-0.1078479960560798,0.6983279585838318,-377.7025146484375,-113.90750122070312,4.672500133514404
11.514271603120891,0.5973119735717773,-1.3451719284057615,-0.0285479985177516,-500.552490234375,49.560001373291016,-23.34499931335449
11.534507581333758,0.1612839996814727,-1.1470439434051514,0.0907679945230484,-425.6700134277344,141.85499572753906,-39.619998931884766
11.554743559546624,-0.0880839973688125,-1.136307954788208,-0.1554279923439026,-347.2875061035156,90.98249816894533,-25.09499931335449
11.574979537759491,0.1412760019302368,-0.8998720049858093,0.3291559815406799,-294.5599975585937,43.78499984741211,1.662500023841858
11.595215515972358,0.0082959998399019,-0.5199639797210693,0.9869799613952636,-326.0950012207031,16.065000534057617,43.75
11.615451494185224,0.0685639977455139,-0.3355000019073486,1.0777479410171509,-290.6050109863281,-32.30500030517578,45.1150016784668
11.635687472398091,-0.1283439993858337,0.3974759876728058,0.464819997549057,-249.41000366210935,70.3324966430664,22.3125
11.655923450610958,0.0366000011563301,0.5272839665412903,-0.3081719875335693,-255.18499755859372,6.684999942779541,6.159999847412109
11.676159428823825,0.2110600024461746,-0.2047159969806671,-0.6849079728126526,-273.2799987792969,-85.69750213623047,-32.060001373291016
11.696395407036691,0.2376559972763061,-0.2674239873886108,-0.4138239920139313,-178.22000122070312,127.17250061035156,-16.204999923706055
11.716631385249558,0.6441599726676941,1.8807519674301147,-3.921324014663696,-214.6725006103516,84.64749908447266,-35.57749938964844
11.736867363462425,0.8832799792289734,0.2920680046081543,-1.6545640230178833,-407.2424926757813,-99.97750091552734,-120.6624984741211
11.757103341675291,0.8198399543762207,2.29311203956604,0.5431439876556396,-298.44500732421875,-175.50750732421875,-35.717498779296875
11.777339319888158,-0.0631959959864616,0.0680759996175766,-1.3171119689941406,-92.50499725341795,79.25749969482422,88.375
11.797575298101025,-0.1161440014839172,-0.177387997508049,-1.6125959157943726,-101.51750183105467,32.51499938964844,87.65750122070312
11.817811276313892,-0.0092719998210668,0.7083320021629333,-1.3202840089797974,1.715000033378601,-18.899999618530277,54.65250015258789
11.838047254526758,-0.0344039984047412,1.1736400127410889,-2.1123080253601074,51.55500030517578,-42.54249954223633,52.709999084472656
11.858283232739625,0.1981279999017715,1.154363989830017,-1.9515119791030884,59.02750015258789,-43.62749862670898,38.56999969482422
11.878519210952492,0.4997119903564453,0.9113399982452391,-1.5247559547424316,67.11250305175781,-64.90750122070312,11.375
11.898755189165358,0.4465200006961822,0.8347240090370178,-1.401535987854004,70.03500366210938,-62.82500076293945,5.792500019073486
11.918991167378225,0.3552640080451965,0.8788880109786987,-1.208043932914734,48.334999084472656,-53.375,9.730000495910645
11.939227145591092,0.1988599896430969,0.7502999901771545,-1.0731120109558103,24.325000762939453,-48.22999954223633,11.234999656677246
11.959463123803959,0.1332239955663681,0.7027199864387512,-0.9206119775772096,27.614999771118164,-48.5099983215332,4.007500171661377
11.979699102016825,0.1483519971370697,0.5224040150642395,-0.8879159688949585,20.96500015258789,-44.380001068115234,4.724999904632568
11.999935080229692,0.1420079916715622,0.469211995601654,-0.8030039668083191,19.40749931335449,-36.34749984741211,13.335000038146973
12.020171058442559,0.052947998046875,0.501908004283905,-0.6212239861488342,18.690000534057617,-32.11249923706055,15.662500381469728
12.040407036655425,0.0051239999011158,0.5016639828681946,-0.505079984664917,13.300000190734863,-31.920000076293945,12.005000114440918
12.060643014868292,-0.0551439970731735,0.4433479905128479,-0.4777520000934601,-1.9600000381469729,-28.80500030517578,7.875
12.080878993081159,-0.0824719965457916,0.3542879819869995,-0.4975159764289856,-5.179999828338623,-22.434999465942383,-1.4874999523162842
12.101114971294026,0.052216000854969,0.4004040062427521,-0.5421679615974426,-5.96750020980835,-12.145000457763672,-6.352499961853027
12.121350949506892,-0.0051239999011158,0.3672199845314026,-0.6895439624786377,-10.8149995803833,-8.242500305175781,-3.6575000286102295
12.141586927719759,0.009515999816358,0.2903600037097931,-0.7473719716072083,-10.3774995803833,-7.525000095367432,-0.2800000011920929
12.161822905932626,0.0219599995762109,0.2908479869365692,-0.7815319895744324,-7.227499961853027,-7.769999980926514,2.380000114440918
12.182058884145492,-0.0268399994820356,0.3211039900779724,-0.7883639931678772,-7.122499942779541,-9.59000015258789,2.5199999809265137
12.20229486235836,-0.0868639945983886,0.2786479890346527,-0.8644919991493225,-8.960000038146973,-13.0024995803833,0.3149999976158142
12.222530840571226,-0.1320039927959442,0.2025199979543686,-0.9108519554138184,-3.867500066757202,-17.552499771118164,-2.414999961853028
12.242766818784093,-0.1595759987831115,0.2032520025968551,-0.961847960948944,-1.4874999523162842,-21.332500457763672,-4.462500095367432
12.26300279699696,-0.1000399962067604,0.2879199981689453,-1.0252879858016968,-0.6474999785423279,-23.59000015258789,-6.177500247955322
12.283238775209826,-0.0973559990525245,0.3467240035533905,-1.0801880359649658,1.347499966621399,-24.727500915527344,-5.84499979019165
12.303474753422693,-0.1222440004348754,0.3308639824390411,-1.1365519762039185,4.707499980926514,-25.200000762939453,-5.6875
12.32371073163556,-0.1437159925699234,0.2971920073032379,-1.169003963470459,7.542500019073486,-25.00749969482422,-5.460000038146973
12.343946709848426,-0.1542080044746399,0.2788919806480407,-1.1775439977645874,7.0,-24.045000076293945,-5.162499904632568
12.364182688061293,-0.1507920026779174,0.2954840064048767,-1.1516799926757812,4.445000171661377,-21.89249992370605,-4.602499961853027
12.38441866627416,-0.1446920037269592,0.3052439987659454,-1.0440759658813477,0.4724999964237213,-16.852500915527344,-4.042500019073486
12.404654644487026,-0.1598199903964996,0.2664479911327362,-1.0057679414749146,1.0325000286102295,-15.417500495910645,-4.007500171661377
12.424890622699893,-0.1698240041732788,0.2459519952535629,-0.949891984462738,1.5924999713897705,-14.9975004196167,-4.269999980926514
12.44512660091276,-0.1595759987831115,0.2479040026664734,-0.8891359567642212,0.875,-14.420000076293944,-4.287499904632568
12.465362579125626,-0.1483519971370697,0.2549799978733063,-0.8539999723434448,-0.2100000083446502,-12.8100004196167,-3.622499942779541
12.485598557338493,-0.147376000881195,0.2593719959259033,-0.8432639837265015,-0.5425000190734863,-11.182499885559082,-2.9574999809265137
12.50583453555136,-0.1525000035762787,0.2674239873886108,-0.8408240079879761,-0.2100000083446502,-9.65999984741211,-2.5199999809265137
12.526070513764227,-0.1554279923439026,0.2705959975719452,-0.8359439969062805,-0.4900000095367431,-8.1899995803833,-1.9600000381469729
12.546306491977093,-0.1603080034255981,0.2742559909820556,-0.835211992263794,-1.2949999570846558,-6.335000038146973,-1.190000057220459
12.56654247018996,-0.1629920005798339,0.2769399881362915,-0.8474119901657104,-1.784999966621399,-4.269999980926514,-0.5600000023841858
12.586778448402827,-0.1666519939899444,0.2820639908313751,-0.8740079998970032,-1.995000004768372,-2.712500095367432,-0.2100000083446502
12.607014426615693,-0.1705559939146042,0.2898719906806946,-0.8986519575119019,-1.784999966621399,-1.5750000476837158,-0.1050000041723251
12.62725040482856,-0.1771439909934997,0.2989000082015991,-0.9318360090255736,-1.0674999952316284,0.7350000143051147,0.2275000065565109
12.647486383041427,-0.1778759956359863,0.2996319830417633,-0.945743978023529,-0.7699999809265137,1.924999952316284,0.5249999761581421
12.667722361254294,-0.1795839965343475,0.297679990530014,-0.9598959684371948,-0.2975000143051147,2.6075000762939453,0.612500011920929
12.68795833946716,-0.1798280030488968,0.2954840064048767,-0.9608719944953918,0.262499988079071,2.7300000190734863,0.5600000023841858
12.708194317680027,-0.1798280030488968,0.2940199971199035,-0.9564799666404724,0.6650000214576721,2.747499942779541,0.4724999964237213
12.728430295892894,-0.1795839965343475,0.2908479869365692,-0.957211971282959,0.9975000023841858,2.275000095367432,0.3675000071525574
12.74866627410576,-0.1771439909934997,0.2879199981689453,-0.9537959694862366,1.1549999713897705,1.4700000286102295,0.1050000041723251
12.768902252318627,-0.1712879985570907,0.2871879935264587,-0.9464759826660156,1.2074999809265137,0.8224999904632568,-0.1574999988079071
12.789138230531494,-0.1686040014028549,0.281819999217987,-0.9389119744300842,1.0674999952316284,0.5249999761581421,-0.2100000083446502
12.80937420874436,-0.1637239903211593,0.2791360020637512,-0.9269559979438782,0.7524999976158142,0.2975000143051147,-0.1749999970197677
12.829610186957227,-0.1603080034255981,0.2791360020637512,-0.9191479682922364,0.5074999928474426,0.0525000020861625,-0.1749999970197677
12.849846165170094,-0.1610399931669235,0.2803559899330139,-0.918172001838684,0.2275000065565109,-0.3149999976158142,-0.1749999970197677
12.87008214338296,-0.1681160032749176,0.2842600047588348,-0.9218319654464722,-0.0874999985098838,-1.1200000047683716,-0.2275000065565109
12.890318121595827,-0.1710439920425415,0.2847479879856109,-0.9271999597549438,-0.3499999940395355,-1.399999976158142,-0.2800000011920929
12.910554099808694,-0.171775996685028,0.2866999804973602,-0.9306159615516664,-0.6299999952316284,-2.012500047683716,-0.332500010728836
12.93079007802156,-0.1742160022258758,0.285968005657196,-0.9311040043830872,-1.0850000381469729,-2.922499895095825,-0.4200000166893005
12.951026056234427,-0.1756799966096878,0.2837719917297363,-0.9303719997406006,-1.5399999618530271,-4.059999942779541,-0.5249999761581421
12.971262034447294,-0.1756799966096878,0.2884079813957214,-0.933299958705902,-1.7324999570846558,-4.304999828338623,-0.5425000190734863
12.991498012660161,-0.1781200021505355,0.2913359999656677,-0.9354959726333618,-1.924999952316284,-4.602499961853027,-0.5950000286102295
13.011733990873028,-0.1805599927902221,0.293531984090805,-0.933299958705902,-1.9075000286102293,-4.900000095367432,-0.7175000309944153
13.031969969085894,-0.1827559918165207,0.2952399849891662,-0.9303719997406006,-1.6449999809265137,-5.039999961853027,-0.8400000333786011
13.052205947298761,-0.1842200011014938,0.2949959933757782,-0.9289079904556274,-1.2074999809265137,-4.882500171661377,-0.9100000262260436
13.072441925511628,-0.1851959973573684,0.293531984090805,-0.9267119765281676,-0.9275000095367432,-4.514999866485596,-0.8924999833106995
13.092677903724494,-0.1864160001277923,0.2920680046081543,-0.9281759858131408,-0.7875000238418579,-4.199999809265137,-0.875
13.112913881937361,-0.1878799945116043,0.2893840074539184,-0.9252479672431946,-0.612500011920929,-3.902499914169312,-0.8050000071525574
13.133149860150228,-0.1895879954099655,0.2876760065555572,-0.9179279804229736,-0.5074999928474426,-3.3600001335144043,-0.6299999952316284
13.153385838363095,-0.1912959963083267,0.2896279990673065,-0.9198799729347228,-0.332500010728836,-2.852499961853028,-0.5774999856948853
13.173621816575961,-0.1942239999771118,0.2903600037097931,-0.9235399961471558,-0.0874999985098838,-2.380000114440918,-0.5600000023841858
13.193857794788828,-0.1949559897184372,0.2925559878349304,-0.9242720007896424,0.1225000023841857,-1.9075000286102293,-0.5950000286102295
13.214093773001695,-0.1956879943609237,0.2898719906806946,-0.9215880036354064,0.2800000011920929,-1.2424999475479126,-0.5249999761581421
13.234329751214561,-0.195932000875473,0.2893840074539184,-0.9201239943504332,0.2800000011920929,-0.612500011920929,-0.4025000035762787
13.254565729427428,-0.1932480037212371,0.2893840074539184,-0.9206119775772096,0.2100000083446502,0.0350000001490116,-0.262499988079071
13.274801707640295,-0.1937360018491745,0.2893840074539184,-0.9201239943504332,0.262499988079071,0.4200000166893005,-0.1749999970197677
13.295037685853162,-0.1930039972066879,0.2903600037097931,-0.9193919897079468,0.1924999952316284,0.7175000309944153,-0.0874999985098838
13.315273664066028,-0.1915400028228759,0.2913359999656677,-0.9193919897079468,0.0874999985098838,0.962499976158142,0.0350000001490116
13.335509642278895,-0.1927599906921386,0.2920680046081543,-0.9220759868621826,0.1050000041723251,1.1200000047683716,0.1050000041723251
13.355745620491762,-0.191783994436264,0.2928000092506408,-0.9250040054321288,0.2450000047683715,1.4350000619888306,0.1050000041723251
13.375981598704628,-0.1910519897937774,0.2937760055065155,-0.9262239933013916,0.4025000035762787,1.6100000143051147,0.0874999985098838
13.396217576917495,-0.1898320019245147,0.2954840064048767,-0.9267119765281676,0.4200000166893005,1.627500057220459,0.0350000001490116
13.416453555130362,-0.1908079981803894,0.2945079803466797,-0.9267119765281676,0.3499999940395355,1.5924999713897705,-0.0175000000745058
13.436689533343229,-0.1908079981803894,0.2940199971199035,-0.9262239933013916,0.2450000047683715,1.715000033378601,-0.0350000001490116
13.456925511556095,-0.1878799945116043,0.293287992477417,-0.9269559979438782,0.0874999985098838,1.6974999904632568,0.0175000000745058
13.477161489768962,-0.1866599917411804,0.2925559878349304,-0.9259799718856812,0.0525000020861625,1.4524999856948853,0.0175000000745058
13.497397467981829,-0.1878799945116043,0.2906039953231811,-0.9232959747314452,0.0350000001490116,0.9800000190734864,-0.0350000001490116
13.517633446194695,-0.1869039982557296,0.2913359999656677,-0.9237839579582214,0.1050000041723251,0.8050000071525574,-0.1050000041723251
13.537869424407562,-0.1876360028982162,0.2908479869365692,-0.9235399961471558,0.1225000023841857,0.3499999940395355,-0.2100000083446502
13.558105402620429,-0.1871479898691177,0.2910920083522796,-0.9242720007896424,0.0525000020861625,0.1924999952316284,-0.1924999952316284
13.578341380833296,-0.1881240010261535,0.2910920083522796,-0.925491988658905,0.0525000020861625,0.0175000000745058,-0.2450000047683715
13.598577359046162,-0.187391996383667,0.2915799915790558,-0.9259799718856812,0.0700000002980232,-0.1924999952316284,-0.2275000065565109
13.618813337259029,-0.1876360028982162,0.2928000092506408,-0.925491988658905,0.0874999985098838,-0.4200000166893005,-0.2450000047683715
13.639049315471896,-0.1881240010261535,0.2930440008640289,-0.924027979373932,0.1050000041723251,-0.4724999964237213,-0.2800000011920929
13.659285293684762,-0.1883679926395416,0.2920680046081543,-0.9237839579582214,0.1400000005960464,-0.612500011920929,-0.2975000143051147
13.67952127189763,-0.1878799945116043,0.293287992477417,-0.9232959747314452,0.1400000005960464,-0.8050000071525574,-0.332500010728836
13.699757250110496,-0.1895879954099655,0.2928000092506408,-0.9198799729347228,0.0175000000745058,-1.0149999856948853,-0.3849999904632568
13.719993228323363,-0.1903200000524521,0.2920680046081543,-0.9215880036354064,-0.1225000023841857,-1.1200000047683716,-0.3675000071525574
13.74022920653623,-0.1912959963083267,0.2920680046081543,-0.925491988658905,-0.0350000001490116,-1.0850000381469729,-0.3499999940395355
13.760465184749096,-0.1925159990787506,0.293287992477417,-0.9279319643974304,0.1050000041723251,-0.8924999833106995,-0.3499999940395355
13.780701162961963,-0.1927599906921386,0.2954840064048767,-0.9276880025863647,0.1924999952316284,-0.8224999904632568,-0.3849999904632568
13.80093714117483,-0.1922719925642013,0.2959719896316528,-0.9242720007896424,0.332500010728836,-0.7524999976158142,-0.4025000035762787
13.821173119387696,-0.1925159990787506,0.2952399849891662,-0.9223200082778932,0.332500010728836,-0.6299999952316284,-0.3849999904632568
13.841409097600563,-0.1920280009508133,0.2923119962215423,-0.9220759868621826,0.2275000065565109,-0.5425000190734863,-0.2975000143051147
13.86164507581343,-0.1905639916658401,0.2920680046081543,-0.9223200082778932,0.0874999985098838,-0.4025000035762787,-0.2450000047683715
13.881881054026296,-0.1903200000524521,0.2920680046081543,-0.9184159636497498,0.1050000041723251,-0.2975000143051147,-0.2450000047683715
13.902117032239163,-0.1905639916658401,0.2930440008640289,-0.9179279804229736,0.1400000005960464,-0.1924999952316284,-0.2275000065565109
13.92235301045203,-0.1920280009508133,0.2915799915790558,-0.9189040064811708,0.1749999970197677,-0.1225000023841857,-0.2450000047683715
13.942588988664896,-0.1932480037212371,0.2940199971199035,-0.9215880036354064,0.2100000083446502,-0.0525000020861625,-0.2275000065565109
13.962824966877763,-0.1947119981050491,0.2942639887332916,-0.9262239933013916,0.2450000047683715,0.0525000020861625,-0.2450000047683715
13.98306094509063,-0.1942239999771118,0.2949959933757782,-0.9271999597549438,0.4025000035762787,0.0525000020861625,-0.2800000011920929
14.003296923303497,-0.1939799934625625,0.2942639887332916,-0.9271999597549438,0.5249999761581421,0.0175000000745058,-0.3149999976158142
14.023532901516363,-0.1934919953346252,0.2937760055065155,-0.9252479672431946,0.5425000190734863,0.1400000005960464,-0.2800000011920929
14.04376887972923,-0.1934919953346252,0.293287992477417,-0.9237839579582214,0.4724999964237213,0.1400000005960464,-0.2975000143051147
14.064004857942097,-0.1937360018491745,0.2928000092506408,-0.9225639700889589,0.4375,0.1924999952316284,-0.262499988079071
14.084240836154963,-0.1920280009508133,0.2920680046081543,-0.9220759868621826,0.4200000166893005,0.262499988079071,-0.2275000065565109
14.10447681436783,-0.1927599906921386,0.2915799915790558,-0.9220759868621826,0.4025000035762787,0.2800000011920929,-0.2450000047683715
14.124712792580697,-0.1922719925642013,0.2915799915790558,-0.9223200082778932,0.4375,0.2800000011920929,-0.2275000065565109
14.144948770793563,-0.1920280009508133,0.2915799915790558,-0.9230519533157348,0.4375,0.0700000002980232,-0.2800000011920929
14.16518474900643,-0.1925159990787506,0.2915799915790558,-0.9223200082778932,0.4025000035762787,0.0175000000745058,-0.2450000047683715
14.185420727219297,-0.1932480037212371,0.2920680046081543,-0.9223200082778932,0.3149999976158142,-0.0700000002980232,-0.2800000011920929
14.205656705432164,-0.1930039972066879,0.2930440008640289,-0.9232959747314452,0.262499988079071,-0.1400000005960464,-0.262499988079071
14.22589268364503,-0.1927599906921386,0.2930440008640289,-0.9242720007896424,0.2100000083446502,-0.1225000023841857,-0.262499988079071
14.246128661857897,-0.1932480037212371,0.293531984090805,-0.9252479672431946,0.1924999952316284,-0.2100000083446502,-0.2800000011920929
14.266364640070764,-0.1956879943609237,0.2940199971199035,-0.9237839579582214,0.2275000065565109,-0.262499988079071,-0.3149999976158142
14.28660061828363,-0.1956879943609237,0.293531984090805,-0.9230519533157348,0.3149999976158142,-0.262499988079071,-0.3149999976158142
14.306836596496497,-0.1944679915904998,0.293287992477417,-0.9228079915046692,0.3499999940395355,-0.2275000065565109,-0.332500010728836
14.327072574709364,-0.1944679915904998,0.2928000092506408,-0.9215880036354064,0.262499988079071,-0.1574999988079071,-0.3149999976158142
14.34730855292223,-0.1949559897184372,0.2915799915790558,-0.9215880036354064,0.1749999970197677,-0.0700000002980232,-0.262499988079071
14.367544531135097,-0.1947119981050491,0.2915799915790558,-0.9230519533157348,0.1050000041723251,-0.0700000002980232,-0.2275000065565109
14.387780509347964,-0.1932480037212371,0.293287992477417,-0.9220759868621826,0.1924999952316284,-0.0700000002980232,-0.2275000065565109
14.40801648756083,-0.1944679915904998,0.293287992477417,-0.9220759868621826,0.1749999970197677,-0.1225000023841857,-0.262499988079071
14.428252465773697,-0.1951999962329864,0.2940199971199035,-0.9223200082778932,0.1924999952316284,-0.0350000001490116,-0.2800000011920929
14.448488443986564,-0.1939799934625625,0.2920680046081543,-0.9232959747314452,0.2100000083446502,-0.1225000023841857,-0.2800000011920929
14.468724422199431,-0.1937360018491745,0.2898719906806946,-0.9210999608039856,0.2100000083446502,-0.1574999988079071,-0.3149999976158142
14.488960400412298,-0.1947119981050491,0.2893840074539184,-0.9193919897079468,0.1924999952316284,-0.1749999970197677,-0.262499988079071
14.509196378625164,-0.1934919953346252,0.2888959944248199,-0.9140239953994752,0.0350000001490116,-0.2275000065565109,-0.262499988079071
14.529432356838031,-0.1969079971313476,0.2918239831924438,-0.9215880036354064,0.0700000002980232,-0.3849999904632568,-0.2450000047683715
14.549668335050898,-0.1978839933872223,0.2937760055065155,-0.9267119765281676,0.1225000023841857,-0.332500010728836,-0.2450000047683715
14.569904313263764,-0.1978839933872223,0.2952399849891662,-0.9289079904556274,0.262499988079071,-0.2100000083446502,-0.3149999976158142
14.590140291476631,-0.1969079971313476,0.2954840064048767,-0.9289079904556274,0.4375,-0.0350000001490116,-0.3149999976158142
14.610376269689498,-0.1944679915904998,0.2925559878349304,-0.9228079915046692,0.332500010728836,0.0525000020861625,-0.2450000047683715
14.630612247902365,-0.1956879943609237,0.2918239831924438,-0.92085599899292,0.2275000065565109,0.0525000020861625,-0.2275000065565109
14.650848226115231,-0.195932000875473,0.2923119962215423,-0.9191479682922364,0.1400000005960464,-0.0350000001490116,-0.2275000065565109
14.671084204328098,-0.196175992488861,0.2918239831924438,-0.9191479682922364,0.0874999985098838,0.0175000000745058,-0.2275000065565109
14.691320182540965,-0.1973959952592849,0.2925559878349304,-0.9220759868621826,0.2450000047683715,-0.0350000001490116,-0.2975000143051147
14.711556160753831,-0.1969079971313476,0.2915799915790558,-0.9220759868621826,0.3849999904632568,-0.0350000001490116,-0.2975000143051147
14.731792138966698,-0.1966639906167984,0.2913359999656677,-0.9210999608039856,0.3499999940395355,0.0175000000745058,-0.262499988079071
14.752028117179565,-0.1969079971313476,0.2928000092506408,-0.92085599899292,0.2450000047683715,0.0700000002980232,-0.2100000083446502
14.772264095392432,-0.1969079971313476,0.2945079803466797,-0.9220759868621826,0.262499988079071,0.1400000005960464,-0.2450000047683715
14.792500073605298,-0.1978839933872223,0.293531984090805,-0.9237839579582214,0.2450000047683715,0.1574999988079071,-0.2450000047683715
14.812736051818165,-0.196175992488861,0.2925559878349304,-0.9232959747314452,0.2275000065565109,0.0700000002980232,-0.262499988079071
14.832972030031032,-0.1973959952592849,0.293287992477417,-0.9237839579582214,0.2275000065565109,0.1050000041723251,-0.262499988079071
14.853208008243898,-0.1964199990034103,0.293531984090805,-0.924515962600708,0.2800000011920929,0.0700000002980232,-0.2450000047683715
14.873443986456765,-0.1973959952592849,0.2928000092506408,-0.9230519533157348,0.2975000143051147,0.1225000023841857,-0.2275000065565109
14.893679964669632,-0.1971519887447357,0.2923119962215423,-0.9215880036354064,0.262499988079071,0.1749999970197677,-0.2450000047683715
14.913915942882499,-0.1964199990034103,0.2923119962215423,-0.920367956161499,0.2100000083446502,0.1924999952316284,-0.2275000065565109
14.934151921095365,-0.196175992488861,0.2923119962215423,-0.9206119775772096,0.1225000023841857,0.1400000005960464,-0.262499988079071
14.954387899308232,-0.1964199990034103,0.2918239831924438,-0.921343982219696,0.1574999988079071,0.0700000002980232,-0.2450000047683715
14.974623877521099,-0.1973959952592849,0.293287992477417,-0.9210999608039856,0.2275000065565109,0.0700000002980232,-0.2275000065565109
14.994859855733965,-0.1981279999017715,0.293287992477417,-0.9218319654464722,0.2450000047683715,0.1050000041723251,-0.262499988079071
15.015095833946832,-0.1971519887447357,0.2937760055065155,-0.9220759868621826,0.1749999970197677,0.2100000083446502,-0.2450000047683715
15.035331812159699,-0.1964199990034103,0.2906039953231811,-0.9225639700889589,0.1924999952316284,0.1749999970197677,-0.2450000047683715
15.055567790372566,-0.1954440027475357,0.2908479869365692,-0.9206119775772096,0.1574999988079071,0.1400000005960464,-0.2100000083446502
15.075803768585432,-0.195932000875473,0.2898719906806946,-0.9176839590072632,0.1400000005960464,0.2100000083446502,-0.2100000083446502
15.096039746798299,-0.195932000875473,0.2915799915790558,-0.9184159636497498,0.0874999985098838,0.1924999952316284,-0.2100000083446502
15.116275725011166,-0.1971519887447357,0.2940199971199035,-0.9206119775772096,0.0874999985098838,0.0874999985098838,-0.1924999952316284
15.136511703224032,-0.1976400017738342,0.2945079803466797,-0.9230519533157348,0.1400000005960464,0.1050000041723251,-0.1924999952316284
15.156747681436899,-0.1995919942855835,0.2952399849891662,-0.9242720007896424,0.262499988079071,0.1749999970197677,-0.2275000065565109
15.176983659649766,-0.1988599896430969,0.2945079803466797,-0.925491988658905,0.3675000071525574,0.1924999952316284,-0.2450000047683715
15.197219637862633,-0.1976400017738342,0.2930440008640289,-0.9262239933013916,0.3675000071525574,0.1924999952316284,-0.2100000083446502
15.2174556160755,-0.1966639906167984,0.2928000092506408,-0.9232959747314452,0.3149999976158142,0.2450000047683715,-0.2100000083446502
15.237691594288366,-0.196175992488861,0.2923119962215423,-0.9215880036354064,0.2275000065565109,0.3675000071525574,-0.1924999952316284
15.257927572501233,-0.196175992488861,0.2930440008640289,-0.9210999608039856,0.2800000011920929,0.332500010728836,-0.2100000083446502
15.2781635507141,-0.1971519887447357,0.2925559878349304,-0.9206119775772096,0.2100000083446502,0.262499988079071,-0.2275000065565109
15.298399528926966,-0.1981279999017715,0.2915799915790558,-0.92085599899292,0.2450000047683715,0.1050000041723251,-0.2450000047683715
15.318635507139833,-0.1976400017738342,0.2928000092506408,-0.920367956161499,0.3149999976158142,0.0874999985098838,-0.2800000011920929
15.3388714853527,-0.1966639906167984,0.2925559878349304,-0.9215880036354064,0.3149999976158142,0.0525000020861625,-0.2800000011920929
15.359107463565566,-0.1969079971313476,0.2920680046081543,-0.9193919897079468,0.2275000065565109,0.1225000023841857,-0.2450000047683715
15.379343441778433,-0.1969079971313476,0.2920680046081543,-0.9171959757804872,0.1924999952316284,0.1574999988079071,-0.2275000065565109
15.3995794199913,-0.196175992488861,0.293531984090805,-0.9196360111236572,0.1225000023841857,0.1400000005960464,-0.2275000065565109
15.419815398204166,-0.1964199990034103,0.2952399849891662,-0.921343982219696,0.1225000023841857,0.0700000002980232,-0.1924999952316284
15.440051376417033,-0.1986159980297088,0.2945079803466797,-0.9220759868621826,0.1749999970197677,0.0874999985098838,-0.2450000047683715
15.4602873546299,-0.1976400017738342,0.2945079803466797,-0.924027979373932,0.2800000011920929,0.1400000005960464,-0.262499988079071
15.480523332842766,-0.1971519887447357,0.2945079803466797,-0.9257360100746156,0.3675000071525574,0.0700000002980232,-0.2800000011920929
15.500759311055633,-0.1981279999017715,0.2937760055065155,-0.924515962600708,0.3849999904632568,-0.0350000001490116,-0.2975000143051147
15.5209952892685,-0.1976400017738342,0.2937760055065155,-0.9230519533157348,0.3499999940395355,0.0175000000745058,-0.2800000011920929
15.541231267481367,-0.1973959952592849,0.2923119962215423,-0.9198799729347228,0.3149999976158142,0.0175000000745058,-0.262499988079071
15.561467245694233,-0.1981279999017715,0.2915799915790558,-0.9193919897079468,0.2100000083446502,-0.0700000002980232,-0.262499988079071
15.5817032239071,-0.1973959952592849,0.2908479869365692,-0.92085599899292,0.0874999985098838,-0.0700000002980232,-0.2275000065565109
15.601939202119967,-0.1978839933872223,0.2925559878349304,-0.9215880036354064,0.0874999985098838,-0.1400000005960464,-0.2450000047683715
15.622175180332833,-0.1973959952592849,0.2940199971199035,-0.9223200082778932,0.1574999988079071,-0.1400000005960464,-0.2800000011920929
15.6424111585457,-0.1983719915151596,0.2947520017623901,-0.9223200082778932,0.262499988079071,-0.0350000001490116,-0.2975000143051147
15.662647136758567,-0.1976400017738342,0.2930440008640289,-0.9225639700889589,0.332500010728836,-0.1050000041723251,-0.2975000143051147
15.682883114971434,-0.1969079971313476,0.2898719906806946,-0.9196360111236572,0.262499988079071,-0.0700000002980232,-0.2975000143051147
15.7031190931843,-0.1966639906167984,0.2901159822940826,-0.9169519543647766,0.1225000023841857,-0.0175000000745058,-0.262499988079071
15.723355071397167,-0.1988599896430969,0.2942639887332916,-0.9186599850654602,0.0874999985098838,-0.0350000001490116,-0.1924999952316284
15.743591049610034,-0.1988599896430969,0.2947520017623901,-0.9196360111236572,0.1050000041723251,0.0175000000745058,-0.2275000065565109
15.7638270278229,-0.1993480026721954,0.2940199971199035,-0.9235399961471558,0.1924999952316284,0.0700000002980232,-0.2275000065565109
15.784063006035767,-0.1983719915151596,0.2942639887332916,-0.925491988658905,0.2975000143051147,0.1574999988079071,-0.2275000065565109
15.804298984248634,-0.1988599896430969,0.2942639887332916,-0.9264679551124572,0.4200000166893005,0.0700000002980232,-0.3149999976158142
15.8245349624615,-0.1995919942855835,0.2940199971199035,-0.924027979373932,0.4724999964237213,0.1050000041723251,-0.2975000143051147
15.844770940674367,-0.1981279999017715,0.2928000092506408,-0.9220759868621826,0.4375,0.1574999988079071,-0.2975000143051147
15.865006918887234,-0.1988599896430969,0.293287992477417,-0.92085599899292,0.2975000143051147,0.2100000083446502,-0.2450000047683715
15.8852428971001,-0.1983719915151596,0.2928000092506408,-0.9206119775772096,0.2100000083446502,0.1749999970197677,-0.262499988079071
15.905478875312967,-0.1988599896430969,0.2918239831924438,-0.9191479682922364,0.1749999970197677,0.0700000002980232,-0.2800000011920929
15.925714853525834,-0.1995919942855835,0.2925559878349304,-0.920367956161499,0.2100000083446502,0.1749999970197677,-0.1924999952316284
15.9459508317387,-0.1983719915151596,0.2925559878349304,-0.921343982219696,0.2800000011920929,0.1574999988079071,-0.2100000083446502
15.966186809951568,-0.1983719915151596,0.2930440008640289,-0.920367956161499,0.3149999976158142,0.1400000005960464,-0.262499988079071
15.986422788164434,-0.1988599896430969,0.2915799915790558,-0.9201239943504332,0.3149999976158142,0.1225000023841857,-0.2975000143051147
16.0066587663773,-0.1986159980297088,0.2928000092506408,-0.9184159636497498,0.2800000011920929,0.0175000000745058,-0.3149999976158142
16.026894744590166,-0.1995919942855835,0.293531984090805,-0.9179279804229736,0.2975000143051147,0.0525000020861625,-0.2800000011920929
16.047130722803033,-0.1993480026721954,0.293287992477417,-0.9193919897079468,0.4900000095367431,0.0700000002980232,-0.2975000143051147
16.0673667010159,-0.1998360008001327,0.2915799915790558,-0.9237839579582214,0.5600000023841858,-0.0175000000745058,-0.332500010728836
16.087602679228766,-0.1991039961576461,0.2923119962215423,-0.9257360100746156,0.6650000214576721,-0.2975000143051147,-0.4200000166893005
16.107838657441633,-0.1993480026721954,0.293531984090805,-0.9247599840164183,0.7875000238418579,-0.3499999940395355,-0.4900000095367431
16.1280746356545,-0.1988599896430969,0.293287992477417,-0.9259799718856812,0.9100000262260436,-0.4025000035762787,-0.5774999856948853
16.148310613867366,-0.1995919942855835,0.2923119962215423,-0.9247599840164183,0.8400000333786011,-0.5249999761581421,-0.6299999952316284
16.168546592080233,-0.20032399892807,0.2913359999656677,-0.9225639700889589,0.699999988079071,-0.6825000047683716,-0.5774999856948853
16.1887825702931,-0.2010560035705566,0.2901159822940826,-0.9201239943504332,0.4900000095367431,-0.6299999952316284,-0.5074999928474426
16.209018548505966,-0.2015440016984939,0.2903600037097931,-0.9198799729347228,0.4025000035762787,-0.6474999785423279,-0.4375
16.229254526718833,-0.2025199979543686,0.2920680046081543,-0.920367956161499,0.2975000143051147,-0.5074999928474426,-0.3675000071525574
16.2494905049317,-0.2012999951839447,0.2923119962215423,-0.920367956161499,0.3499999940395355,-0.3499999940395355,-0.3675000071525574
16.269726483144566,-0.20032399892807,0.2930440008640289,-0.9186599850654602,0.4025000035762787,-0.1574999988079071,-0.332500010728836
16.289962461357433,-0.2008119970560073,0.2906039953231811,-0.9186599850654602,0.4025000035762787,0.0874999985098838,-0.262499988079071
16.3101984395703,-0.2000799924135208,0.2893840074539184,-0.9169519543647766,0.332500010728836,0.1225000023841857,-0.2275000065565109
16.330434417783167,-0.2005679905414581,0.2893840074539184,-0.915731966495514,0.262499988079071,0.1574999988079071,-0.2275000065565109
16.350670395996033,-0.2012999951839447,0.2903600037097931,-0.9154880046844482,0.2450000047683715,0.2100000083446502,-0.1924999952316284
16.3709063742089,-0.2020319998264312,0.2888959944248199,-0.918172001838684,0.2800000011920929,0.2100000083446502,-0.1924999952316284
16.391142352421767,-0.2027639895677566,0.2923119962215423,-0.921343982219696,0.2975000143051147,0.1924999952316284,-0.1749999970197677
16.411378330634633,-0.2034959942102432,0.2928000092506408,-0.9247599840164183,0.3849999904632568,0.1574999988079071,-0.1924999952316284
16.4316143088475,-0.2025199979543686,0.2937760055065155,-0.9257360100746156,0.4550000131130218,0.1749999970197677,-0.2450000047683715
16.451850287060367,-0.2030079960823059,0.293531984090805,-0.9257360100746156,0.4550000131130218,0.1574999988079071,-0.332500010728836
16.472086265273234,-0.201787993311882,0.2906039953231811,-0.92085599899292,0.4025000035762787,0.2275000065565109,-0.2450000047683715
16.4923222434861,-0.2010560035705566,0.2893840074539184,-0.9196360111236572,0.3849999904632568,0.2975000143051147,-0.2450000047683715
16.512558221698967,-0.2012999951839447,0.2906039953231811,-0.9201239943504332,0.3149999976158142,0.332500010728836,-0.2800000011920929
16.532794199911834,-0.2008119970560073,0.2898719906806946,-0.9198799729347228,0.3675000071525574,0.2275000065565109,-0.262499988079071
16.5530301781247,-0.2012999951839447,0.2906039953231811,-0.920367956161499,0.3499999940395355,0.2275000065565109,-0.262499988079071
16.573266156337567,-0.2020319998264312,0.2908479869365692,-0.921343982219696,0.4550000131130218,0.262499988079071,-0.2450000047683715
16.593502134550434,-0.2010560035705566,0.2908479869365692,-0.9196360111236572,0.4200000166893005,0.2100000083446502,-0.2275000065565109
16.6137381127633,-0.2012999951839447,0.2896279990673065,-0.9201239943504332,0.3499999940395355,0.1574999988079071,-0.262499988079071
16.633974090976167,-0.2010560035705566,0.2908479869365692,-0.92085599899292,0.262499988079071,0.1924999952316284,-0.2450000047683715
16.654210069189034,-0.2015440016984939,0.2913359999656677,-0.921343982219696,0.2450000047683715,0.1225000023841857,-0.2275000065565109
16.6744460474019,-0.2020319998264312,0.2918239831924438,-0.9220759868621826,0.1924999952316284,0.0525000020861625,-0.2100000083446502
16.694682025614767,-0.2022759914398193,0.2923119962215423,-0.9230519533157348,0.2100000083446502,0.0350000001490116,-0.1924999952316284
16.714918003827634,-0.2015440016984939,0.2928000092506408,-0.9220759868621826,0.1924999952316284,-0.0175000000745058,-0.2275000065565109
16.7351539820405,-0.2025199979543686,0.2923119962215423,-0.9230519533157348,0.2450000047683715,-0.0175000000745058,-0.262499988079071
16.755389960253368,-0.2030079960823059,0.2903600037097931,-0.9201239943504332,0.2975000143051147,0.0175000000745058,-0.262499988079071
16.775625938466234,-0.201787993311882,0.2893840074539184,-0.918172001838684,0.262499988079071,0.0700000002980232,-0.2450000047683715
16.7958619166791,-0.2030079960823059,0.2893840074539184,-0.920367956161499,0.2100000083446502,0.0874999985098838,-0.2450000047683715
16.816097894891968,-0.2032520025968551,0.2908479869365692,-0.9220759868621826,0.2275000065565109,0.1574999988079071,-0.262499988079071
16.836333873104834,-0.2025199979543686,0.2920680046081543,-0.92085599899292,0.2100000083446502,0.2450000047683715,-0.2450000047683715
16.8565698513177,-0.2022759914398193,0.2910920083522796,-0.9210999608039856,0.262499988079071,0.2450000047683715,-0.2450000047683715
16.876805829530568,-0.2015440016984939,0.2930440008640289,-0.9215880036354064,0.2975000143051147,0.2800000011920929,-0.2100000083446502
16.897041807743435,-0.2010560035705566,0.2925559878349304,-0.9218319654464722,0.2800000011920929,0.3499999940395355,-0.1924999952316284
16.9172777859563,-0.2005679905414581,0.2884079813957214,-0.920367956161499,0.2450000047683715,0.3499999940395355,-0.2275000065565109
16.937513764169168,-0.2012999951839447,0.2884079813957214,-0.9196360111236572,0.1924999952316284,0.2100000083446502,-0.2275000065565109
16.957749742382035,-0.2012999951839447,0.2893840074539184,-0.9198799729347228,0.1400000005960464,0.0175000000745058,-0.2100000083446502
16.9779857205949,-0.2022759914398193,0.2903600037097931,-0.9242720007896424,0.1050000041723251,-0.0874999985098838,-0.1924999952316284
16.998221698807768,-0.2042279988527298,0.2942639887332916,-0.9289079904556274,0.2450000047683715,-0.3849999904632568,-0.2275000065565109
17.018457677020635,-0.2044719904661178,0.2947520017623901,-0.9293959736824036,0.332500010728836,-0.7350000143051147,-0.3149999976158142
17.0386936552335,-0.2020319998264312,0.293287992477417,-0.9218319654464722,0.4375,-1.2949999570846558,-0.5074999928474426
17.05892963344637,-0.2020319998264312,0.2913359999656677,-0.9198799729347228,0.4375,-1.399999976158142,-0.5249999761581421
17.079165611659235,-0.2015440016984939,0.2910920083522796,-0.9215880036354064,0.2975000143051147,-1.5750000476837158,-0.5774999856948853
17.0994015898721,-0.2012999951839447,0.289139986038208,-0.9196360111236572,0.1574999988079071,-2.012500047683716,-0.6474999785423279
17.11963756808497,-0.2015440016984939,0.2903600037097931,-0.9142679572105408,-0.2275000065565109,-2.3975000381469727,-0.6299999952316284
17.139873546297835,-0.2025199979543686,0.2920680046081543,-0.9076799750328064,-0.8400000333786011,-3.1675000190734863,-0.5600000023841858
17.160109524510702,-0.2012999951839447,0.2908479869365692,-0.8991400003433228,-1.5750000476837158,-4.53249979019165,-0.5074999928474426
17.18034550272357,-0.2022759914398193,0.2896279990673065,-0.9003599882125854,-2.555000066757202,-6.510000228881836,-0.5600000023841858
17.200581480936435,-0.2064239978790283,0.2952399849891662,-0.9123159646987916,-3.5,-8.907500267028809,-0.7175000309944153
17.220817459149302,-0.2037400007247924,0.2984119951725006,-0.9145119786262512,-4.987500190734863,-12.145000457763672,-0.8924999833106995
17.24105343736217,-0.2071560025215149,0.3003639876842499,-0.9154880046844482,-7.262499809265137,-15.942500114440918,-0.875
17.261289415575035,-0.2127679884433746,0.3023159801959991,-0.938423991203308,-8.609999656677246,-19.28499984741211,-1.0850000381469729
17.281525393787902,-0.2293599992990493,0.3001199960708618,-0.9533079862594604,-8.207500457763672,-21.787500381469727,-1.924999952316284
17.30176137200077,-0.264983981847763,0.2920680046081543,-0.9679479598999025,-6.474999904632568,-21.752500534057617,-2.887500047683716
17.321997350213636,-0.2823079824447632,0.297679990530014,-0.973315954208374,-2.275000095367432,-19.040000915527344,-4.409999847412109
17.342233328426502,-0.2823079824447632,0.3089039921760559,-0.9474520087242126,2.362499952316284,-14.087499618530272,-5.494999885559082
17.36246930663937,-0.2784039974212646,0.3086600005626678,-0.909875988960266,5.582499980926514,-8.1899995803833,-5.565000057220459
17.382705284852236,-0.2769399881362915,0.3074399828910827,-0.8981639742851257,7.175000190734863,-3.884999990463257,-5.005000114440918
17.402941263065102,-0.2820639908313751,0.3042680025100708,-0.903775990009308,7.682499885559082,-2.134999990463257,-4.480000019073486
17.42317724127797,-0.2842600047588348,0.2969479858875274,-0.9008479714393616,8.032500267028809,-0.612500011920929,-4.287499904632568
17.443413219490836,-0.2803559899330139,0.2998760044574737,-0.9223200082778932,8.399999618530273,2.940000057220459,-3.867500066757202
17.463649197703702,-0.2696200013160705,0.3020719885826111,-0.952575981616974,7.980000019073486,6.737500190734863,-3.325000047683716
17.48388517591657,-0.2496119886636734,0.3069519996643066,-0.9838079810142516,6.912499904632568,5.775000095367432,-3.220000028610229
17.504121154129436,-0.2408279925584793,0.3015840053558349,-0.986735999584198,7.367499828338623,0.0700000002980232,-4.042500019073486
17.524357132342303,-0.253028005361557,0.2862119972705841,-0.9925919771194458,9.3100004196167,-4.619999885559082,-5.302500247955322
17.54459311055517,-0.2569319903850555,0.2742559909820556,-1.0413919687271118,11.130000114440918,-4.269999980926514,-5.635000228881836
17.564829088768036,-0.2737680077552795,0.2942639887332916,-1.062619924545288,21.6825008392334,-1.4350000619888306,-6.440000057220459
17.585065066980903,-0.2928000092506408,0.284991979598999,-1.0155279636383057,29.76749992370605,0.8400000333786011,-7.682499885559082
17.60530104519377,-0.2676680088043213,0.268887996673584,-1.0196759700775146,35.087501525878906,5.53000020980835,-8.680000305175781
17.625537023406636,-0.2832840085029602,0.2893840074539184,-1.0372439622879028,37.17000198364258,7.875,-7.630000114440918
17.645773001619503,-0.2630319893360138,0.2547360062599182,-0.9345200061798096,40.75749969482422,22.399999618530277,-15.487500190734863
17.66600897983237,-0.2381439954042434,0.1564040035009384,-0.9628239870071412,48.125,28.36750030517578,-12.28499984741211
17.686244958045236,-0.2169159948825836,0.1390800029039383,-0.8898679614067078,51.04750061035156,44.97499847412109,-16.11750030517578
17.706480936258103,-0.1890999972820282,0.1554279923439026,-0.8854759931564331,44.04750061035156,52.32500076293945,-16.55500030517578
17.72671691447097,-0.1649439930915832,0.0548999980092048,-0.8864519596099854,43.2599983215332,63.9275016784668,-22.364999771118164
17.746952892683836,-0.0309880003333091,0.0597799979150295,-0.8147159814834595,42.27999877929688,97.9124984741211,-18.059999465942383
17.767188870896703,0.0854000002145767,0.0961359962821006,-0.8003199696540833,81.9000015258789,128.15249633789062,-4.567500114440918
17.78742484910957,-0.0531919971108436,0.1305399984121322,-0.876691997051239,128.67750549316406,133.27999877929688,28.875
17.807660827322437,-0.010491999797523,0.1622599959373474,-1.2158520221710205,126.71749877929688,134.78500366210938,15.154999732971191
17.827896805535303,-0.1010159999132156,0.1090679988265037,-1.4422839879989624,123.6374969482422,91.6125030517578,-0.875
17.84813278374817,-0.0661239996552467,0.1947119981050491,-1.5879520177841189,89.87999725341797,10.43000030517578,3.8324999809265137
17.868368761961037,-0.0068319998681545,0.2857239842414856,-1.2509880065917969,68.5999984741211,-34.02000045776367,8.819999694824219
17.888604740173903,0.0795440003275871,0.379175990819931,-0.9057279825210572,44.64250183105469,-54.6875,-8.4350004196167
17.90884071838677,0.1512800008058548,0.2378999888896942,-0.9123159646987916,9.414999961853027,-48.334999084472656,-7.0
17.929076696599637,0.0685639977455139,-0.0234239995479583,-0.994055986404419,-8.1899995803833,-15.890000343322754,-3.009999990463257
17.949312674812504,0.0134199997410178,-0.1522559970617294,-1.0335839986801147,3.0975000858306885,-15.505000114440918,-9.677499771118164
17.96954865302537,-0.0192760005593299,-0.1605519950389862,-0.9933239817619324,22.732500076293945,-30.83500099182129,-11.077500343322754
17.989784631238237,-0.0600240007042884,-0.1842200011014938,-0.9279319643974304,41.38750076293945,-42.71749877929688,-13.335000038146973
18.010020609451104,-0.1227319985628128,-0.2125239968299865,-0.9511119723320008,58.345001220703125,-51.310001373291016,-15.032500267028809
18.03025658766397,-0.1903200000524521,-0.1085800006985664,-0.981611967086792,78.2074966430664,-59.32500076293945,-12.162500381469728
18.050492565876837,-0.2300919890403747,0.1083360016345977,-1.0277279615402222,79.2925033569336,-65.0999984741211,-12.3725004196167
18.070728544089704,-0.2823079824447632,0.0007319999858736,-0.9879559874534608,63.89250183105469,-68.93250274658203,-16.135000228881836
18.09096452230257,-0.2952399849891662,-0.0370879992842674,-0.9574559926986694,52.622501373291016,-81.56749725341797,-16.100000381469727
18.111200500515437,-0.3025600016117096,-0.0239119995385408,-1.0069879293441772,39.91749954223633,-81.32250213623047,-14.90999984741211
18.131436478728304,-0.2876760065555572,-0.0551439970731735,-0.9550159573554992,27.71999931335449,-76.09000396728516,-17.727500915527344
18.15167245694117,-0.2571759819984436,-0.228872001171112,-0.9230519533157348,21.01749992370605,-84.12249755859375,-26.31999969482422
18.171908435154037,-0.2225279957056045,-0.4016239941120147,-0.8583920001983643,24.51749992370605,-102.42749786376952,-35.875
18.192144413366904,-0.2537599802017212,-0.4138239920139313,-0.8762039542198181,44.852500915527344,-108.18499755859376,-40.52999877929688
18.21238039157977,-0.2703520059585571,-0.301827996969223,-0.80349200963974,67.84750366210938,-104.54499816894533,-42.875
18.232616369792638,-0.297435998916626,-0.2588839828968048,-0.7595719695091248,77.55999755859375,-102.23500061035156,-41.5625
18.252852348005504,-0.3967439830303192,-0.3681959807872772,-0.6761239767074585,72.37999725341797,-92.94249725341795,-36.557498931884766
