Time (seconds),acc_x,acc_y,acc_z,gyro_x,gyro_y,gyro_z
0.020232245827605168,0.0531919971108436,-0.8271600008010864,0.569983959197998,0.612500011920929,0.5950000286102295,-0.6299999952316284
0.040464491655210336,0.0512399971485137,-0.8286240100860596,0.5726680159568787,0.6299999952316284,0.6825000047683716,-0.4724999964237213
0.0606967374828155,0.0485559999942779,-0.8313080072402954,0.5733999609947205,0.7524999976158142,0.6299999952316284,-0.5249999761581421
0.08092898331042067,0.0480679981410503,-0.8303319811820984,0.5726680159568787,0.8924999833106995,0.5774999856948853,-0.6825000047683716
0.10116122913802583,0.0480679981410503,-0.8261839747428894,0.5724239945411682,1.0499999523162842,0.5425000190734863,-0.7875000238418579
0.12139347496563099,0.0492879971861839,-0.8225240111351013,0.5770599842071533,0.9800000190734864,0.5600000023841858,-0.8400000333786011
0.14162572079323615,0.0527039989829063,-0.8222799897193909,0.5799880027770996,0.699999988079071,0.699999988079071,-0.7524999976158142
0.16185796662084131,0.0548999980092048,-0.8252080082893372,0.579255998134613,0.5425000190734863,0.8224999904632568,-0.612500011920929
0.18209021244844648,0.0524599999189376,-0.8288679718971252,0.5716919898986816,0.4900000095367431,0.4025000035762787,-0.3149999976158142
0.20232245827605164,0.0531919971108436,-0.8300879597663879,0.5685200095176697,0.4200000166893005,-0.2450000047683715,-0.1225000023841857
0.2225547041036568,0.0534359999001026,-0.8293559551239014,0.5658360123634338,0.2800000011920929,-1.1725000143051147,0.3499999940395355
0.24278694993126196,0.0514839999377727,-0.8300879597663879,0.5633959770202637,-0.1225000023841857,-2.047499895095825,0.9100000262260436
0.2630191957588671,0.047580000013113,-0.8283799886703491,0.5638839602470398,-0.4550000131130218,-2.712500095367432,1.2949999570846558
0.2832514415864723,0.0451399981975555,-0.8239879608154297,0.5670560002326965,-0.5950000286102295,-3.0625,1.3825000524520874
0.3034836874140775,0.0444080010056495,-0.8208159804344177,0.5697399973869324,-0.5425000190734863,-2.992500066757202,1.2599999904632568
0.3237159332416827,0.0453839972615242,-0.8225240111351013,0.5712040066719055,-0.332500010728836,-2.257499933242798,0.9449999928474426
0.3439481790692879,0.046604000031948,-0.8252080082893372,0.5755959749221802,-0.1225000023841857,-1.3825000524520874,0.5425000190734863
0.36418042489689306,0.0512399971485137,-0.8274039626121521,0.5775479674339294,0.2100000083446502,-0.5249999761581421,0.1225000023841857
0.38441267072449825,0.0536799989640712,-0.8317959904670715,0.5748639702796936,0.4200000166893005,0.3499999940395355,-0.1225000023841857
0.40464491655210344,0.05197199806571,-0.8349679708480835,0.5714479684829712,0.5950000286102295,0.5600000023841858,-0.2800000011920929
0.42487716237970863,0.0487999990582466,-0.8359439969062805,0.5707159638404846,0.9100000262260436,0.3849999904632568,-0.5774999856948853
0.4451094082073138,0.0461159981787204,-0.8356999754905701,0.5743759870529175,1.3300000429153442,0.5074999928474426,-1.1725000143051147
0.465341654034919,0.047580000013113,-0.8337479829788208,0.5765720009803772,1.4700000286102295,0.7350000143051147,-1.715000033378601
0.4855738998625242,0.0539239980280399,-0.8271600008010864,0.5770599842071533,1.627500057220459,0.8400000333786011,-2.065000057220459
0.5058061456901294,0.061243999749422,-0.822767972946167,0.5775479674339294,1.4524999856948853,0.8050000071525574,-2.450000047683716
0.5260383915177346,0.0619760006666183,-0.8271600008010864,0.5799880027770996,0.6825000047683716,0.9100000262260436,-2.5199999809265137
0.5462706373453398,0.0605119988322258,-0.8288679718971252,0.5780360102653503,0.1749999970197677,1.399999976158142,-2.345000028610229
0.566502883172945,0.0585599988698959,-0.8242319822311401,0.575107991695404,0.2275000065565109,1.5924999713897705,-2.117500066757202
0.5867351290005501,0.056607998907566,-0.8203279972076416,0.5721799731254578,0.0525000020861625,1.3125,-1.8725000619888303
0.6069673748281553,0.0544119998812675,-0.8183760046958923,0.5709599852561951,0.0525000020861625,0.8400000333786011,-1.8200000524520876
0.6271996206557605,0.0541680008172988,-0.8178879618644714,0.5721799731254578,0.2100000083446502,0.1749999970197677,-1.8725000619888303
0.6474318664833657,0.0561200007796287,-0.8200839757919312,0.5743759870529175,-0.0874999985098838,-0.1924999952316284,-1.7675000429153442
0.6676641123109709,0.0558759979903698,-0.8254519701004028,0.5709599852561951,-0.4724999964237213,-0.5600000023841858,-1.347499966621399
0.6878963581385761,0.0539239980280399,-0.8244760036468506,0.5697399973869324,-0.1225000023841857,-1.0674999952316284,-0.875
0.7081286039661813,0.0539239980280399,-0.8239879608154297,0.5731559991836548,0.2450000047683715,-1.2599999904632568,-0.4550000131130218
0.7283608497937865,0.0558759979903698,-0.8271600008010864,0.5760840177536011,0.5774999856948853,-0.9975000023841858,-0.0175000000745058
0.7485930956213916,0.0563639998435974,-0.8293559551239014,0.574131965637207,1.3825000524520874,-0.7524999976158142,0.2800000011920929
0.7688253414489968,0.0546559989452362,-0.8259400129318237,0.5733999609947205,1.8025000095367432,-0.7875000238418579,0.4200000166893005
0.789057587276602,0.047335997223854,-0.8288679718971252,0.5694959759712219,0.9275000095367432,-1.3650000095367432,0.5950000286102295
0.8092898331042072,0.0505079999566078,-0.8295999765396118,0.5687639713287354,0.9100000262260436,-1.784999966621399,0.7699999809265137
0.8295220789318124,0.052216000854969,-0.8300879597663879,0.5733999609947205,0.8400000333786011,-1.9075000286102293,0.875
0.8497543247594176,0.0512399971485137,-0.8337479829788208,0.5797439813613892,0.4550000131130218,-1.627500057220459,0.8400000333786011
0.8699865705870228,0.0544119998812675,-0.8371639847755432,0.5743759870529175,0.7350000143051147,-1.3650000095367432,0.6299999952316284
0.890218816414628,0.0563639998435974,-0.8327719569206238,0.5687639713287354,1.347499966621399,-1.2599999904632568,0.5950000286102295
0.9104510622422332,0.056607998907566,-0.8266719579696655,0.5746200084686279,1.2949999570846558,-0.9800000190734864,0.5774999856948853
0.9306833080698383,0.0588039979338645,-0.8266719579696655,0.5809639692306519,0.9100000262260436,-0.6650000214576721,0.4900000095367431
0.9509155538974435,0.0627079978585243,-0.8271600008010864,0.5821840167045593,0.9800000190734864,-0.4550000131130218,0.4375
0.9711477997250487,0.0629519969224929,-0.8264279961585999,0.5775479674339294,1.347499966621399,-0.3849999904632568,0.3849999904632568
0.9913800455526539,0.0600240007042884,-0.819595992565155,0.5724239945411682,1.4524999856948853,-0.3675000071525574,0.332500010728836
1.011612291380259,0.057583998888731,-0.8161799907684326,0.5721799731254578,1.1725000143051147,-0.5249999761581421,0.1924999952316284
1.0318445372078642,0.0578279979526996,-0.8137399554252625,0.575107991695404,1.0499999523162842,-0.875,0.1574999988079071
1.0520767830354694,0.0563639998435974,-0.814471960067749,0.5765720009803772,0.7875000238418579,-1.0149999856948853,0.0350000001490116
1.0723090288630746,0.0544119998812675,-0.8200839757919312,0.5777919888496399,0.5074999928474426,-0.9449999928474426,-0.2275000065565109
1.0925412746906797,0.0588039979338645,-0.8247199654579163,0.5787680149078369,0.5950000286102295,-0.9100000262260436,-0.4200000166893005
1.112773520518285,0.0634399950504303,-0.8213039636611938,0.5809639692306519,1.1549999713897705,-0.9275000095367432,-0.4200000166893005
1.1330057663458901,0.061243999749422,-0.8178879618644714,0.5836479663848877,1.3125,-0.8924999833106995,-0.4375
1.1532380121734953,0.0551439970731735,-0.8220359683036804,0.5821840167045593,0.7875000238418579,-0.6825000047683716,-0.7175000309944153
1.1734702580011005,0.0570959970355033,-0.8281359672546387,0.5755959749221802,0.1574999988079071,-1.0499999523162842,-0.6650000214576721
1.1937025038287057,0.0602679997682571,-0.8244760036468506,0.5736439824104309,0.0175000000745058,-1.3300000429153442,-0.2975000143051147
1.2139347496563109,0.0607559978961944,-0.8222799897193909,0.5768159627914429,0.1924999952316284,-0.7875000238418579,-0.3849999904632568
1.234166995483916,0.0614879988133907,-0.8203279972076416,0.5812079906463623,0.4025000035762787,-0.1400000005960464,-0.875
1.2543992413115213,0.061243999749422,-0.8230119943618774,0.575107991695404,0.1924999952316284,-0.2450000047683715,-1.277500033378601
1.2746314871391264,0.061243999749422,-0.8252080082893372,0.5738880038261414,0.1050000041723251,-0.7350000143051147,-1.277500033378601
1.2948637329667316,0.0639280006289482,-0.8281359672546387,0.5780360102653503,0.1574999988079071,-0.7175000309944153,-1.0149999856948853
1.3150959787943368,0.0649039968848228,-0.8266719579696655,0.579255998134613,0.2450000047683715,-0.3149999976158142,-0.9975000023841858
1.335328224621942,0.0656360015273094,-0.8242319822311401,0.578279972076416,0.3149999976158142,0.0700000002980232,-1.277500033378601
1.3555604704495472,0.0668559968471527,-0.8200839757919312,0.5768159627914429,0.262499988079071,-0.0175000000745058,-1.5575000047683716
1.3757927162771524,0.0661239996552467,-0.8181319832801819,0.574131965637207,-0.1400000005960464,-0.2100000083446502,-1.627500057220459
1.3960249621047576,0.0614879988133907,-0.8183760046958923,0.5743759870529175,-1.7324999570846558,-0.262499988079071,-1.4524999856948853
1.4162572079323628,0.0607559978961944,-0.8198399543762207,0.5763279795646667,-2.362499952316284,-0.2100000083446502,-1.5750000476837158
1.436489453759968,0.06734399497509,-0.8247199654579163,0.5775479674339294,-2.484999895095825,0.0700000002980232,-1.6100000143051147
1.4567216995875731,0.0670999959111213,-0.823743999004364,0.575107991695404,-2.1875,0.0874999985098838,-1.3825000524520874
1.4769539454151783,0.0634399950504303,-0.8249639868736267,0.5748639702796936,-1.837499976158142,-0.0700000002980232,-1.0850000381469729
1.4971861912427835,0.0624639987945556,-0.8276479840278625,0.5758399963378906,-1.5049999952316284,-0.1225000023841857,-0.9449999928474426
1.5174184370703887,0.071492001414299,-0.8305760025978088,0.5758399963378906,-0.6299999952316284,0.1749999970197677,-0.7350000143051147
1.537650682897994,0.0741759985685348,-0.826915979385376,0.5743759870529175,0.0350000001490116,0.5774999856948853,-0.4550000131130218
1.557882928725599,0.0695400014519691,-0.827892005443573,0.5736439824104309,0.0525000020861625,0.6825000047683716,-0.4200000166893005
1.5781151745532043,0.065880000591278,-0.8288679718971252,0.5736439824104309,-0.1225000023841857,0.4200000166893005,-0.5600000023841858
1.5983474203808095,0.0649039968848228,-0.8261839747428894,0.5748639702796936,-0.1749999970197677,0.0874999985098838,-0.5950000286102295
1.6185796662084146,0.0619760006666183,-0.8276479840278625,0.5773040056228638,-0.0350000001490116,-0.1574999988079071,-0.6825000047683716
1.6388119120360198,0.0631959959864616,-0.8274039626121521,0.579255998134613,0.1225000023841857,-0.1050000041723251,-0.8224999904632568
1.659044157863625,0.06734399497509,-0.8244760036468506,0.5797439813613892,0.2450000047683715,0.0175000000745058,-0.9975000023841858
1.6792764036912302,0.0690519958734512,-0.822767972946167,0.5770599842071533,0.1050000041723251,0.1749999970197677,-0.9275000095367432
1.6995086495188354,0.0690519958734512,-0.8247199654579163,0.5746200084686279,-0.2275000065565109,0.332500010728836,-0.8050000071525574
1.7197408953464406,0.0670999959111213,-0.8252080082893372,0.5726680159568787,-0.5425000190734863,0.4724999964237213,-0.4900000095367431
1.7399731411740458,0.0651479959487915,-0.8256959915161133,0.575107991695404,-0.6474999785423279,0.612500011920929,-0.1574999988079071
1.760205387001651,0.0653920024633407,-0.8266719579696655,0.5763279795646667,-0.7175000309944153,0.9275000095367432,-0.0350000001490116
1.7804376328292562,0.0690519958734512,-0.8249639868736267,0.5760840177536011,-0.6825000047683716,1.190000057220459,-0.1749999970197677
1.8006698786568613,0.0697840005159378,-0.8286240100860596,0.5707159638404846,-0.7875000238418579,1.2074999809265137,-0.3849999904632568
1.8209021244844665,0.0695400014519691,-0.8293559551239014,0.5619319677352905,-0.4724999964237213,0.8050000071525574,-0.3849999904632568
1.8411343703120717,0.0683199986815452,-0.8276479840278625,0.5614439845085144,-0.1225000023841857,0.3149999976158142,-0.262499988079071
1.861366616139677,0.0629519969224929,-0.8305760025978088,0.5660799741744995,-0.0525000020861625,0.0700000002980232,-0.1050000041723251
1.881598861967282,0.062219999730587,-0.8322839736938477,0.5665680170059204,0.2800000011920929,-0.2800000011920929,-0.0525000020861625
1.9018311077948873,0.0690519958734512,-0.8286240100860596,0.5651040077209473,0.5774999856948853,-0.4200000166893005,0.0175000000745058
1.9220633536224925,0.0724679976701736,-0.8256959915161133,0.5694959759712219,0.2975000143051147,-0.1400000005960464,0.0700000002980232
1.9422955994500977,0.0712479948997497,-0.826915979385376,0.5726680159568787,-0.1924999952316284,0.1400000005960464,0.1574999988079071
1.9625278452777029,0.0707599967718124,-0.8288679718971252,0.5738880038261414,-0.262499988079071,-0.2450000047683715,0.2100000083446502
1.982760091105308,0.0695400014519691,-0.8298439979553223,0.5733999609947205,-0.1749999970197677,-0.5600000023841858,0.2800000011920929
2.002992336932913,0.0663679987192154,-0.8300879597663879,0.5687639713287354,-0.332500010728836,0.1574999988079071,0.1225000023841857
2.023224582760518,0.0651479959487915,-0.8300879597663879,0.5655919909477234,-0.2100000083446502,0.1924999952316284,0.0874999985098838
2.043456828588123,0.06734399497509,-0.8283799886703491,0.5655919909477234,-0.1225000023841857,0.1400000005960464,0.1924999952316284
2.063689074415728,0.06734399497509,-0.8271600008010864,0.5660799741744995,-0.1749999970197677,0.0700000002980232,0.2275000065565109
2.083921320243333,0.0678320005536079,-0.8276479840278625,0.5694959759712219,-0.1574999988079071,-0.0350000001490116,0.1225000023841857
2.104153566070938,0.0653920024633407,-0.8317959904670715,0.5682759881019592,0.1400000005960464,0.1574999988079071,-0.0700000002980232
2.124385811898543,0.0644159987568855,-0.8274039626121521,0.5655919909477234,0.262499988079071,0.1574999988079071,-0.2275000065565109
2.1446180577261478,0.0634399950504303,-0.8247199654579163,0.5648599863052368,-0.0700000002980232,0.0525000020861625,-0.332500010728836
2.1648503035537527,0.0685639977455139,-0.8300879597663879,0.569983959197998,-0.4550000131130218,-0.0525000020861625,-0.3149999976158142
2.1850825493813577,0.0670999959111213,-0.8330159783363342,0.5731559991836548,-0.5774999856948853,-0.1574999988079071,-0.1749999970197677
2.2053147952089627,0.065880000591278,-0.8342359662055969,0.5712040066719055,-0.4900000095367431,-0.1225000023841857,0.0525000020861625
2.2255470410365676,0.0644159987568855,-0.8303319811820984,0.5672999620437622,-0.1050000041723251,-0.2275000065565109,0.1225000023841857
2.2457792868641726,0.0631959959864616,-0.8286240100860596,0.5694959759712219,0.0350000001490116,-0.2975000143051147,0.0874999985098838
2.2660115326917776,0.0619760006666183,-0.8281359672546387,0.5726680159568787,-0.0525000020861625,-0.2800000011920929,-0.0525000020861625
2.2862437785193825,0.0651479959487915,-0.8291119933128357,0.5702279806137085,-0.1050000041723251,-0.2275000065565109,-0.262499988079071
2.3064760243469875,0.0685639977455139,-0.8308199644088745,0.5670560002326965,0.0175000000745058,-0.2100000083446502,-0.3149999976158142
2.3267082701745925,0.066611997783184,-0.8308199644088745,0.5668119788169861,0.0700000002980232,-0.1574999988079071,-0.1574999988079071
2.3469405160021974,0.06734399497509,-0.8305760025978088,0.5660799741744995,0.1400000005960464,-0.2450000047683715,0.0700000002980232
2.3671727618298024,0.0678320005536079,-0.8305760025978088,0.5655919909477234,0.1574999988079071,-0.2450000047683715,0.2975000143051147
2.3874050076574074,0.0688079968094825,-0.8298439979553223,0.5660799741744995,0.2975000143051147,-0.332500010728836,0.4724999964237213
2.4076372534850123,0.0685639977455139,-0.8291119933128357,0.5675439834594727,0.2975000143051147,-0.4900000095367431,0.5600000023841858
2.4278694993126173,0.0670999959111213,-0.8298439979553223,0.5692520141601562,0.1225000023841857,-0.7175000309944153,0.4550000131130218
2.4481017451402223,0.0685639977455139,-0.8308199644088745,0.5712040066719055,-0.0525000020861625,-0.9100000262260436,0.332500010728836
2.4683339909678272,0.0675880014896392,-0.8276479840278625,0.5690079927444458,-0.0700000002980232,-1.190000057220459,0.2975000143051147
2.488566236795432,0.0675880014896392,-0.8264279961585999,0.56632399559021,-0.0350000001490116,-1.4175000190734863,0.3849999904632568
2.508798482623037,0.0695400014519691,-0.8274039626121521,0.5665680170059204,-0.1050000041723251,-1.3650000095367432,0.4550000131130218
2.529030728450642,0.0695400014519691,-0.827892005443573,0.5687639713287354,-0.3499999940395355,-1.1549999713897705,0.5249999761581421
2.549262974278247,0.0646599978208541,-0.8305760025978088,0.5677880048751831,-0.5600000023841858,-1.0325000286102295,0.4900000095367431
2.569495220105852,0.0619760006666183,-0.8308199644088745,0.5672999620437622,-0.4025000035762787,-1.0674999952316284,0.3499999940395355
2.589727465933457,0.0644159987568855,-0.8286240100860596,0.5687639713287354,-0.4724999964237213,-0.9275000095367432,0.1400000005960464
2.609959711761062,0.0663679987192154,-0.8281359672546387,0.5677880048751831,-0.7699999809265137,-0.7875000238418579,-0.1225000023841857
2.630191957588667,0.06734399497509,-0.8288679718971252,0.5660799741744995,-0.7875000238418579,-0.7175000309944153,-0.2975000143051147
2.650424203416272,0.0685639977455139,-0.827892005443573,0.5668119788169861,-0.6825000047683716,-0.4025000035762787,-0.3675000071525574
2.670656449243877,0.0702719986438751,-0.8288679718971252,0.56632399559021,-1.0149999856948853,-0.1400000005960464,-0.262499988079071
2.690888695071482,0.0685639977455139,-0.8322839736938477,0.5629079937934875,-1.1024999618530271,-0.1050000041723251,-0.1225000023841857
2.711120940899087,0.0670999959111213,-0.8298439979553223,0.5651040077209473,-0.875,-0.4025000035762787,-0.1400000005960464
2.731353186726692,0.0653920024633407,-0.8295999765396118,0.5685200095176697,-0.9800000190734864,-0.5950000286102295,-0.2275000065565109
2.7515854325542968,0.0649039968848228,-0.8356999754905701,0.5685200095176697,-0.875,-0.4724999964237213,-0.3499999940395355
2.7718176783819017,0.0675880014896392,-0.8342359662055969,0.56632399559021,-0.2800000011920929,-0.0525000020861625,-0.3499999940395355
2.7920499242095067,0.0690519958734512,-0.8317959904670715,0.5655919909477234,-0.1574999988079071,0.5600000023841858,-0.3499999940395355
2.8122821700371117,0.0683199986815452,-0.8344799876213074,0.5614439845085144,-0.2450000047683715,0.8224999904632568,-0.4724999964237213
2.8325144158647166,0.0700279995799064,-0.8371639847755432,0.5568079948425293,0.0350000001490116,0.699999988079071,-0.6299999952316284
2.8527466616923216,0.0705159977078437,-0.8337479829788208,0.5572959780693054,0.2100000083446502,0.875,-0.7350000143051147
2.8729789075199266,0.0702719986438751,-0.8339920043945312,0.5614439845085144,0.2450000047683715,1.3125,-0.8924999833106995
2.8932111533475315,0.0705159977078437,-0.8317959904670715,0.5655919909477234,0.4200000166893005,1.5575000047683716,-0.9975000023841858
2.9134433991751365,0.0724679976701736,-0.8330159783363342,0.5675439834594727,0.2800000011920929,1.4700000286102295,-1.0674999952316284
2.9336756450027415,0.0729559957981109,-0.8361879587173462,0.5616880059242249,0.0525000020861625,1.2949999570846558,-1.0149999856948853
2.9539078908303464,0.0732000023126602,-0.8359439969062805,0.5587599873542786,0.2450000047683715,1.1024999618530271,-0.9975000023841858
2.9741401366579514,0.0722239986062049,-0.8332599997520447,0.5594919919967651,0.2450000047683715,0.9975000023841858,-0.962499976158142
2.9943723824855564,0.0724679976701736,-0.8325279951095581,0.5607119798660278,0.2100000083446502,0.9975000023841858,-0.9449999928474426
3.0146046283131613,0.0712479948997497,-0.8325279951095581,0.5624200105667114,0.2275000065565109,0.9975000023841858,-0.9100000262260436
3.0348368741407663,0.0695400014519691,-0.8330159783363342,0.5646159648895264,0.2800000011920929,0.8924999833106995,-0.7350000143051147
3.0550691199683713,0.0719799995422363,-0.8347240090370178,0.5616880059242249,0.3849999904632568,0.8050000071525574,-0.5774999856948853
3.0753013657959762,0.0736880004405975,-0.8327719569206238,0.5624200105667114,0.6650000214576721,0.8224999904632568,-0.4200000166893005
3.095533611623581,0.0732000023126602,-0.8327719569206238,0.5626639723777771,0.7175000309944153,0.7699999809265137,-0.1574999988079071
3.115765857451186,0.0697840005159378,-0.832040011882782,0.561199963092804,0.6474999785423279,0.3675000071525574,-0.0350000001490116
3.135998103278791,0.0688079968094825,-0.8305760025978088,0.561199963092804,0.6650000214576721,-0.1225000023841857,0.2975000143051147
3.156230349106396,0.0675880014896392,-0.8313080072402954,0.5636399984359741,0.8050000071525574,-0.2800000011920929,0.2450000047683715
3.176462594934001,0.066611997783184,-0.8300879597663879,0.5672999620437622,0.6825000047683716,-0.4550000131130218,0.1924999952316284
3.196694840761606,0.0678320005536079,-0.832040011882782,0.5677880048751831,0.5600000023841858,-0.5249999761581421,0.0525000020861625
3.216927086589211,0.0685639977455139,-0.8332599997520447,0.56632399559021,0.7175000309944153,-0.3675000071525574,-0.0874999985098838
3.237159332416816,0.0683199986815452,-0.8327719569206238,0.5646159648895264,0.9100000262260436,-0.262499988079071,-0.2100000083446502
3.257391578244421,0.0680759996175766,-0.8315519690513611,0.5658360123634338,0.8224999904632568,-0.1050000041723251,-0.2450000047683715
3.277623824072026,0.0695400014519691,-0.832040011882782,0.5677880048751831,0.6474999785423279,0.0700000002980232,-0.1924999952316284
3.297856069899631,0.0668559968471527,-0.8347240090370178,0.5685200095176697,0.7350000143051147,0.2975000143051147,-0.1924999952316284
3.318088315727236,0.0692960023880004,-0.835211992263794,0.5648599863052368,0.9100000262260436,0.4550000131130218,-0.2450000047683715
3.338320561554841,0.0717360004782676,-0.8317959904670715,0.5633959770202637,0.8400000333786011,0.5249999761581421,-0.2100000083446502
3.3585528073824458,0.071492001414299,-0.8281359672546387,0.562175989151001,0.6825000047683716,0.4550000131130218,-0.2450000047683715
3.3787850532100507,0.0692960023880004,-0.8305760025978088,0.5651040077209473,0.332500010728836,0.4025000035762787,-0.3675000071525574
3.3990172990376557,0.0695400014519691,-0.8339920043945312,0.5675439834594727,0.1749999970197677,0.4900000095367431,-0.3499999940395355
3.4192495448652607,0.071492001414299,-0.8339920043945312,0.56632399559021,0.6474999785423279,0.4375,-0.3149999976158142
3.4394817906928656,0.0695400014519691,-0.8288679718971252,0.5658360123634338,1.1024999618530271,0.3849999904632568,-0.332500010728836
3.4597140365204706,0.0707599967718124,-0.8261839747428894,0.56632399559021,1.0499999523162842,0.262499988079071,-0.3849999904632568
3.4799462823480756,0.0712479948997497,-0.8249639868736267,0.5646159648895264,0.7699999809265137,0.2275000065565109,-0.3499999940395355
3.5001785281756805,0.0697840005159378,-0.8291119933128357,0.5653479695320129,0.5249999761581421,0.2100000083446502,-0.3675000071525574
3.5204107740032855,0.0707599967718124,-0.8322839736938477,0.5658360123634338,0.5950000286102295,0.2800000011920929,-0.3499999940395355
3.5406430198308905,0.0710039958357811,-0.8339920043945312,0.5675439834594727,1.0499999523162842,0.332500010728836,-0.3149999976158142
3.5608752656584954,0.0717360004782676,-0.8305760025978088,0.5672999620437622,1.3300000429153442,0.4025000035762787,-0.2100000083446502
3.5811075114861004,0.0692960023880004,-0.8291119933128357,0.5665680170059204,1.2599999904632568,0.2975000143051147,-0.1749999970197677
3.6013397573137054,0.0692960023880004,-0.8295999765396118,0.5675439834594727,1.0499999523162842,0.1749999970197677,-0.2800000011920929
3.6215720031413103,0.0705159977078437,-0.8300879597663879,0.5682759881019592,0.7875000238418579,0.0874999985098838,-0.332500010728836
3.6418042489689153,0.0710039958357811,-0.8315519690513611,0.5690079927444458,0.612500011920929,0.2800000011920929,-0.2800000011920929
3.6620364947965203,0.0695400014519691,-0.831063985824585,0.5707159638404846,0.7175000309944153,0.5249999761581421,-0.1225000023841857
3.6822687406241252,0.0690519958734512,-0.8305760025978088,0.5702279806137085,0.6474999785423279,0.3675000071525574,0.1400000005960464
3.70250098645173,0.0702719986438751,-0.8276479840278625,0.570472002029419,0.4900000095367431,0.0874999985098838,0.3499999940395355
3.722733232279335,0.0717360004782676,-0.8256959915161133,0.5709599852561951,-0.1400000005960464,-0.1574999988079071,0.5774999856948853
3.74296547810694,0.0690519958734512,-0.8225240111351013,0.5753520131111145,-0.0525000020861625,-0.2975000143051147,0.7350000143051147
3.763197723934545,0.06734399497509,-0.8225240111351013,0.5804759860038757,-0.1225000023841857,-0.3499999940395355,0.6474999785423279
3.78342996976215,0.0697840005159378,-0.827892005443573,0.5760840177536011,0.0700000002980232,-0.7350000143051147,0.5600000023841858
3.803662215589755,0.0705159977078437,-0.8264279961585999,0.5702279806137085,0.6474999785423279,-1.3825000524520874,0.6474999785423279
3.82389446141736,0.0680759996175766,-0.8239879608154297,0.5670560002326965,0.6650000214576721,-1.5750000476837158,0.5425000190734863
3.844126707244965,0.0661239996552467,-0.8234999775886536,0.5697399973869324,0.3675000071525574,-1.1549999713897705,0.1225000023841857
3.86435895307257,0.0670999959111213,-0.8242319822311401,0.5712040066719055,0.2100000083446502,-0.6825000047683716,-0.1400000005960464
3.884591198900175,0.0695400014519691,-0.8281359672546387,0.5629079937934875,1.0325000286102295,0.4724999964237213,0.5249999761581421
3.90482344472778,0.0678320005536079,-0.8274039626121521,0.5641279816627502,1.1725000143051147,0.9449999928474426,1.0499999523162842
3.925055690555385,0.06734399497509,-0.8283799886703491,0.5665680170059204,0.875,1.225000023841858,1.277500033378601
3.94528793638299,0.071492001414299,-0.8317959904670715,0.5677880048751831,0.5774999856948853,1.6974999904632568,1.347499966621399
3.9655201822105948,0.075883999466896,-0.8366760015487671,0.56632399559021,0.7175000309944153,2.450000047683716,1.2949999570846558
3.9857524280381997,0.0744199976325035,-0.8381400108337402,0.5643720030784607,0.9800000190734864,3.150000095367432,1.225000023841858
4.005984673865805,0.0683199986815452,-0.8376519680023193,0.5660799741744995,1.0850000381469729,3.0274999141693115,1.1024999618530271
4.02621691969341,0.0653920024633407,-0.8354560136795044,0.5685200095176697,1.3825000524520874,2.572499990463257,1.0850000381469729
4.0464491655210155,0.0668559968471527,-0.8364319801330566,0.56632399559021,1.8025000095367432,2.414999961853028,1.0499999523162842
4.066681411348621,0.0707599967718124,-0.8374080061912537,0.5636399984359741,1.995000004768372,2.380000114440918,1.2949999570846558
4.086913657176226,0.0702719986438751,-0.8332599997520447,0.5609560012817383,1.7675000429153442,2.362499952316284,1.75
4.107145903003832,0.06734399497509,-0.8359439969062805,0.5638839602470398,1.399999976158142,2.345000028610229,1.8725000619888303
4.127378148831437,0.0649039968848228,-0.8383839726448059,0.56632399559021,1.5750000476837158,2.134999990463257,1.8899999856948853
4.147610394659043,0.062219999730587,-0.8366760015487671,0.5665680170059204,1.9424999952316284,1.924999952316284,2.2049999237060547
4.167842640486648,0.0656360015273094,-0.8330159783363342,0.5629079937934875,2.0999999046325684,1.75,2.9749999046325684
4.188074886314253,0.0663679987192154,-0.8300879597663879,0.5653479695320129,1.9424999952316284,1.680000066757202,4.042500019073486
4.208307132141859,0.0588039979338645,-0.8222799897193909,0.5726680159568787,1.3300000429153442,1.1549999713897705,4.900000095367432
4.228539377969464,0.0585599988698959,-0.8239879608154297,0.5746200084686279,0.5074999928474426,0.6650000214576721,5.302500247955322
4.24877162379707,0.0588039979338645,-0.8286240100860596,0.5804759860038757,0.1400000005960464,1.0149999856948853,4.865000247955322
4.269003869624675,0.0580720007419586,-0.8286240100860596,0.578279972076416,0.5774999856948853,1.5924999713897705,3.902499914169312
4.2892361154522805,0.0514839999377727,-0.8300879597663879,0.5760840177536011,1.2599999904632568,1.7324999570846558,2.625
4.309468361279886,0.038307998329401,-0.8376519680023193,0.5934079885482788,-0.7175000309944153,2.694999933242798,1.2599999904632568
4.329700607107491,0.0351359993219375,-0.8583920001983643,0.6056079864501953,-3.255000114440918,4.077499866485596,1.6100000143051147
4.349932852935097,0.0353799983859062,-0.8884040117263794,0.6124399900436401,-4.567500114440918,5.932499885559082,1.7324999570846558
4.370165098762702,0.0485559999942779,-0.9106079936027528,0.6139039993286133,-4.514999866485596,7.367499828338623,1.8725000619888303
4.3903973445903075,0.0614879988133907,-0.9281759858131408,0.619271993637085,-4.392499923706055,8.295000076293945,2.799999952316284
4.410629590417913,0.0497759990394115,-0.935252010822296,0.6239079833030701,-5.25,8.6274995803833,3.587500095367432
4.430861836245518,0.0392839983105659,-0.9428159594535828,0.6170759797096252,-7.997499942779541,8.417500495910645,4.164999961853027
4.451094082073124,0.0214719995856285,-0.9562360048294068,0.6087799668312073,-10.675000190734863,8.27750015258789,4.829999923706055
4.471326327900729,0.0017079999670386,-0.9720959663391112,0.6070719957351685,-12.845000267028809,7.332499980926514,6.072500228881836
4.491558573728335,0.0029279999434947,-0.9838079810142516,0.6097559928894043,-15.207500457763672,6.159999847412109,7.752500057220459
4.51179081955594,0.0168359987437725,-0.981611967086792,0.6004840135574341,-17.219999313354492,6.002500057220459,8.662500381469727
4.532023065383545,0.0187879987061023,-0.986735999584198,0.5831599831581116,-19.372499465942383,7.034999847412109,8.329999923706055
4.552255311211151,0.0161039996892213,-0.9896639585494996,0.579255998134613,-21.1924991607666,8.015000343322754,8.207500457763672
4.572487557038756,0.0056119998916983,-0.9882000088691713,0.5816959738731384,-22.207500457763672,8.4350004196167,8.539999961853027
4.592719802866362,-0.0017079999670386,-0.981611967086792,0.5702279806137085,-22.854999542236328,9.082500457763672,9.047499656677246
4.612952048693967,-0.0117119997739791,-0.9730719923973083,0.5670560002326965,-23.082500457763672,10.989999771118164,9.25749969482422
4.633184294521572,-0.0109799997881054,-0.9681919813156128,0.5660799741744995,-22.32999992370605,13.982500076293944,9.100000381469728
4.653416540349178,-0.0085399998351931,-0.9562360048294068,0.541923999786377,-22.190000534057617,16.100000381469727,8.819999694824219
4.673648786176783,-0.0185439996421337,-0.9389119744300842,0.510204017162323,-23.852500915527344,16.170000076293945,9.432499885559082
4.693881032004389,-0.0214719995856285,-0.9196360111236572,0.497759997844696,-24.95499992370605,15.067500114440918,10.9375
4.714113277831994,-0.0261080004274845,-0.8964560031890869,0.4877559840679168,-24.43000030517578,14.350000381469728,12.057499885559082
4.7343455236595995,-0.0514839999377727,-0.8742519617080688,0.4714079797267914,-23.957500457763672,14.157500267028809,12.302499771118164
4.754577769487205,-0.0668559968471527,-0.8559519648551941,0.444811999797821,-24.95499992370605,13.877500534057615,12.25
4.77481001531481,-0.0487999990582466,-0.8396039605140686,0.4296839833259582,-25.44499969482422,12.460000038146973,11.952500343322754
4.795042261142416,-0.0463600009679794,-0.8181319832801819,0.4411519765853882,-21.962499618530277,9.904999732971191,9.99250030517578
4.815274506970021,-0.041967999190092,-0.8127639889717102,0.4545719921588897,-17.56999969482422,7.070000171661377,9.15250015258789
4.8355067527976265,-0.0248879995197057,-0.815447986125946,0.4311479926109314,-15.907500267028809,6.40500020980835,9.887499809265137
4.855738998625232,-0.0509959980845451,-0.8210600018501282,0.3777119815349579,-15.81999969482422,6.912499904632568,10.56999969482422
4.875971244452837,-0.0819839984178543,-0.8222799897193909,0.3655119836330414,-16.344999313354492,6.877500057220459,10.86750030517578
4.896203490280443,-0.0971119999885559,-0.8117879629135132,0.3921079933643341,-15.522500038146973,5.914999961853027,9.975000381469728
4.916435736108048,-0.0753960013389587,-0.8520479798316956,0.3696599900722503,-14.699999809265137,6.230000019073486,11.795000076293944
4.936667981935654,-0.085156001150608,-0.8759599924087524,0.3459919989109039,-15.81999969482422,7.034999847412109,14.1225004196167
4.956900227763259,-0.0932080000638961,-0.9003599882125854,0.3699039816856384,-16.69499969482422,6.755000114440918,14.682499885559082
4.977132473590864,-0.1068719998002052,-0.90938800573349,0.4006479978561401,-17.920000076293945,5.442500114440918,13.63249969482422
4.99736471941847,-0.1217559948563575,-0.9401319622993468,0.3938159942626953,-20.107500076293945,3.4649999141693115,12.880000114440918
5.017596965246075,-0.1373720020055771,-0.973315954208374,0.3623400032520294,-20.93000030517578,2.414999961853028,13.457500457763672
5.037829211073681,-0.1427399963140487,-0.9850279688835144,0.3603879809379577,-20.457500457763672,2.6600000858306885,14.94499969482422
5.058061456901286,-0.1141919940710067,-0.9755119681358336,0.3845439851284027,-20.57999992370605,3.674999952316284,15.38249969482422
5.0782937027288915,-0.1137039959430694,-0.97843998670578,0.3879599869251251,-22.5049991607666,4.287499904632568,13.93000030517578
5.098525948556497,-0.1268799901008606,-1.0001559257507324,0.3569719791412353,-23.64249992370605,3.0975000858306885,13.440000534057615
5.118758194384102,-0.1217559948563575,-1.007475972175598,0.3408679962158203,-22.81999969482422,2.2225000858306885,13.824999809265137
5.138990440211708,-0.1234639957547187,-1.0047919750213623,0.3416000008583069,-22.27750015258789,3.150000095367432,14.210000038146973
5.159222686039313,-0.1415199935436248,-1.0130879878997805,0.3298879861831665,-23.11750030517578,4.409999847412109,14.84000015258789
5.1794549318669185,-0.1647000014781952,-1.039440035820007,0.305976003408432,-23.57250022888184,4.252500057220459,15.505000114440918
5.199687177694524,-0.1837320029735565,-1.0638400316238403,0.2896279990673065,-24.0625,3.5174999237060547,16.344999313354492
5.219919423522129,-0.1890999972820282,-1.0611560344696045,0.3118319809436798,-23.48500061035156,3.220000028610229,16.83500099182129
5.240151669349735,-0.1808039993047714,-1.0233359336853027,0.333547979593277,-21.770000457763672,3.220000028610229,15.032500267028809
5.26038391517734,-0.1764120012521743,-1.015771985054016,0.3259840011596679,-22.34749984741211,2.065000057220459,12.25
5.280616161004946,-0.1851959973573684,-1.0187000036239624,0.313539981842041,-22.802499771118164,0.1400000005960464,11.024999618530272
5.300848406832551,-0.1893439888954162,-1.0011320114135742,0.30621999502182,-22.24250030517578,-1.3125,11.619999885559082
5.321080652660156,-0.1883679926395416,-0.994055986404419,0.3069519996643066,-23.274999618530277,-2.117500066757202,12.28499984741211
5.341312898487762,-0.205935999751091,-0.987223982810974,0.314516007900238,-20.51000022888184,-2.3975000381469727,11.0600004196167
5.361545144315367,-0.1737279891967773,-0.9677039980888368,0.322079986333847,-15.942500114440918,-2.712500095367432,9.922499656677246
5.381777390142973,-0.1634799987077713,-0.9576999545097352,0.2945079803466797,-12.8100004196167,-2.2049999237060547,9.65999984741211
5.402009635970578,-0.1637239903211593,-0.937936007976532,0.2825520038604736,-10.307499885559082,-1.837499976158142,10.517499923706056
5.4222418817981834,-0.171775996685028,-0.9267119765281676,0.2718159854412079,-9.537500381469728,-1.4350000619888306,11.567500114440918
5.442474127625789,-0.1666519939899444,-0.9179279804229736,0.2703520059585571,-7.752500057220459,0.0350000001490116,11.707500457763672
5.462706373453394,-0.1708000004291534,-0.9096319675445556,0.2786479890346527,-3.762500047683716,1.5399999618530271,10.0625
5.482938619281,-0.1744599938392639,-0.8976759910583496,0.2871879935264587,-1.1549999713897705,1.8899999856948853,8.609999656677246
5.503170865108605,-0.1937360018491745,-0.90938800573349,0.2710839807987213,-0.2275000065565109,0.8575000166893005,7.664999961853027
5.5234031109362105,-0.1908079981803894,-0.9284200072288512,0.2835280001163482,8.34749984741211,-3.7100000381469727,4.637499809265137
5.543635356763816,-0.1876360028982162,-0.9315919876098632,0.2998760044574737,10.342499732971191,-4.760000228881836,2.275000095367432
5.563867602591421,-0.1910519897937774,-0.9430599808692932,0.3042680025100708,11.707500457763672,-5.757500171661377,-0.3849999904632568
5.584099848419027,-0.191783994436264,-0.948915958404541,0.2952399849891662,13.457500457763672,-7.577499866485596,-3.4124999046325684
5.604332094246632,-0.206179991364479,-0.9462319612503052,0.2886520028114319,14.40250015258789,-9.712499618530272,-6.054999828338623
5.624564340074238,-0.206179991364479,-0.9223200082778932,0.2884079813957214,16.065000534057617,-12.25,-7.315000057220459
5.644796585901843,-0.2030079960823059,-0.8859639763832092,0.301827996969223,16.135000228881836,-14.105000495910645,-7.857500076293945
5.665028831729448,-0.1988599896430969,-0.8518039584159851,0.2996319830417633,13.125,-14.90999984741211,-8.662500381469727
5.685261077557054,-0.2005679905414581,-0.8159359693527222,0.2820639908313751,7.840000152587891,-17.184999465942383,-8.662500381469727
5.705493323384659,-0.2042279988527298,-0.7683559656143188,0.289139986038208,3.674999952316284,-19.915000915527344,-7.244999885559082
5.725725569212265,-0.2022759914398193,-0.7368800044059753,0.3057319819927215,0.4550000131130218,-21.6825008392334,-3.884999990463257
5.74595781503987,-0.206179991364479,-0.7246800065040588,0.3308639824390411,-2.817500114440918,-21.29750061035156,0.1050000041723251
5.766190060867475,-0.1981279999017715,-0.742247998714447,0.354775995016098,-1.5049999952316284,-18.270000457763672,2.5899999141693115
5.786422306695081,-0.1544519960880279,-0.7605479955673218,0.3596560060977936,4.199999809265137,-13.737500190734863,2.450000047683716
5.806654552522686,-0.1293199956417083,-0.7610359787940979,0.3403799831867218,10.657500267028809,-10.324999809265137,-0.4724999964237213
5.826886798350292,-0.1183400005102157,-0.7695760130882263,0.322079986333847,15.592499732971191,-7.542500019073486,-4.025000095367432
5.847119044177897,-0.1017479971051216,-0.7788479924201965,0.3064639866352081,16.59000015258789,-4.21750020980835,-8.452500343322754
5.8673512900055025,-0.0988200008869171,-0.8032479882240295,0.2793799936771393,16.467500686645508,0.2975000143051147,-15.487500190734863
5.887583535833108,-0.1112639978528022,-0.8225240111351013,0.2437559962272644,16.502500534057617,5.25,-23.48500061035156
5.907815781660713,-0.1278560012578964,-0.8444839715957642,0.2171600013971328,16.642499923706055,10.657500267028809,-30.48500061035156
5.928048027488319,-0.1554279923439026,-0.8557080030441284,0.224480003118515,17.219999313354492,16.65999984741211,-33.23250198364258
5.948280273315924,-0.1842200011014938,-0.8696159720420837,0.2422920018434524,17.09749984741211,21.06999969482422,-31.79750061035156
5.9685125191435295,-0.2042279988527298,-0.8530240058898926,0.2459519952535629,15.154999732971191,25.44499969482422,-30.55500030517578
5.988744764971135,-0.2083759903907776,-0.8381400108337402,0.2237479984760284,9.9399995803833,29.61000061035156,-30.502500534057617
6.00897701079874,-0.2095959931612014,-0.8649799823760986,0.1915400028228759,3.184999942779541,30.852500915527344,-31.53499984741211
6.029209256626346,-0.2239919900894165,-0.8876720070838928,0.1317600011825561,-0.962499976158142,29.662500381469727,-37.92250061035156
6.049441502453951,-0.2313119918107986,-0.8654679656028748,0.1515239924192428,-5.127500057220459,25.462499618530277,-41.82500076293945
6.069673748281557,-0.2105719894170761,-0.8898679614067078,0.1132159978151321,-16.55500030517578,24.587499618530277,-43.6974983215332
6.089905994109162,-0.1568920016288757,-0.8696159720420837,0.1117519959807396,-20.7549991607666,22.5575008392334,-45.97249984741211
6.110138239936767,-0.1317600011825561,-0.7976359724998474,0.1339560002088546,-28.770000457763672,19.89750099182129,-48.40499877929688
6.130370485764373,-0.1647000014781952,-0.9828319549560548,0.1063839942216873,-73.44750213623047,20.842500686645508,-40.005001068115234
6.150602731591978,-0.230335995554924,-1.4164199829101562,0.0734440013766288,-76.00250244140625,20.107500076293945,-16.065000534057617
6.170834977419584,-0.3147599995136261,-1.4186159372329712,0.1332239955663681,-39.567501068115234,17.202499389648438,-1.837499976158142
6.191067223247189,-0.2300919890403747,-1.318331956863403,0.297679990530014,1.0850000381469729,8.487500190734863,-6.772500038146973
6.2112994690747945,0.0446520000696182,-1.2278079986572266,0.4126040041446686,33.477500915527344,3.587500095367432,-15.38249969482422
6.2315317149024,0.2069119960069656,-1.145336031913757,0.3540439903736114,47.70500183105469,3.954999923706055,-11.270000457763672
6.251763960730005,0.1964199990034103,-0.9284200072288512,0.1869039982557296,47.845001220703125,6.545000076293945,-7.210000038146973
6.271996206557611,0.1373720020055771,-0.7280960083007812,0.1805599927902221,27.125,12.460000038146973,-10.324999809265137
6.292228452385216,0.1434720009565353,-0.7417600154876709,0.3401359915733337,0.2800000011920929,30.852500915527344,-16.729999542236328
6.3124606982128215,0.2237479984760284,-0.9513559937477112,0.4504239857196808,-12.074999809265137,40.72249984741211,-12.267499923706056
6.332692944040427,0.1920280009508133,-1.038707971572876,0.4391999840736389,-7.927500247955322,42.84000015258789,-3.4649999141693115
6.352925189868032,0.0819839984178543,-1.054811954498291,0.3940599858760834,-3.954999923706055,41.14250183105469,-2.572499990463257
6.373157435695638,0.0280600003898143,-0.9855159521102904,0.4223639965057373,-0.2275000065565109,33.407501220703125,-8.6274995803833
6.393389681523243,-0.0002439999952912,-0.8747400045394897,0.4499360024929046,-1.2074999809265137,28.542499542236328,-13.614999771118164
6.413621927350849,0.0200079996138811,-0.8991400003433228,0.4533520042896271,-5.494999885559082,25.84749984741211,-15.452500343322754
6.433854173178454,0.033671997487545,-0.9096319675445556,0.4291960000991821,-5.022500038146973,21.875,-14.734999656677246
6.454086419006059,0.0771040022373199,-0.918172001838684,0.3999159932136535,1.6100000143051147,25.14750099182129,-13.317500114440918
6.474318664833665,0.066611997783184,-0.9032880067825316,0.3330599963665008,3.2725000381469727,25.637500762939453,-13.912500381469728
6.49455091066127,0.1093119978904724,-0.9013359546661376,0.3581919968128204,-4.585000038146973,-6.807499885559082,-14.06999969482422
6.514783156488876,0.0749079957604408,-0.8432639837265015,0.387715995311737,-4.8125,-8.994999885559082,-9.397500038146973
6.535015402316481,0.0656360015273094,-0.8896239995956421,0.3811279833316803,6.230000019073486,-1.7324999570846558,-6.422500133514404
6.5552476481440864,0.0631959959864616,-0.9103639721870422,0.4106519818305969,10.56999969482422,-3.3424999713897705,-3.447499990463257
6.575479893971692,0.0856439992785453,-0.9128040075302124,0.3716119825839996,13.457500457763672,-2.275000095367432,-0.332500010728836
6.595712139799297,0.090279996395111,-0.9035319685935974,0.3350119888782501,7.210000038146973,-1.8899999856948853,2.625
6.615944385626903,0.0649039968848228,-0.9252479672431946,0.3455039858818054,-0.5950000286102295,-0.0874999985098838,4.462500095367432
6.636176631454508,0.0814960002899169,-0.9576999545097352,0.3533119857311249,-3.745000123977661,-0.1924999952316284,4.025000095367432
6.6564088772821135,0.0788119956851005,-0.962336003780365,0.3447719812393188,-6.84250020980835,-0.0700000002980232,3.7799999713897705
6.676641123109719,0.0556319989264011,-0.9686799645423888,0.3233000040054321,-7.525000095367432,2.327500104904175,-1.1375000476837158
6.696873368937324,0.0936959981918335,-0.9769759774208068,0.3257399797439575,-6.387499809265137,2.0999999046325684,-4.934999942779541
6.71710561476493,0.0490439981222152,-0.8998720049858093,0.3364759981632232,-7.157500267028809,1.6100000143051147,-5.862500190734863
6.737337860592535,-0.0139079997316002,-0.9106079936027528,0.3903999924659729,-10.6225004196167,-5.757500171661377,-0.9800000190734864
6.7575701064201406,0.0346480011940002,-0.8984079957008362,0.3796640038490295,-9.957500457763672,-9.362500190734863,1.3650000095367432
6.777802352247746,0.118827998638153,-0.880840003490448,0.3777119815349579,-14.244999885559082,-10.90250015258789,4.357500076293945
6.798034598075351,0.1634799987077713,-0.8981639742851257,0.3650240004062652,-19.40749931335449,-10.850000381469728,7.472499847412109
6.818266843902957,0.1607960015535354,-0.9006040096282959,0.3128080070018768,-17.3075008392334,-11.585000038146973,8.172499656677246
6.838499089730562,0.1654319912195205,-0.8979200124740601,0.333547979593277,-15.050000190734863,-12.61750030517578,8.242500305175781
6.858731335558168,0.1361519992351532,-0.8701039552688599,0.3416000008583069,-17.850000381469727,-9.3100004196167,10.727499961853027
6.878963581385773,0.1132159978151321,-0.876691997051239,0.363315999507904,-25.357500076293945,-8.680000305175781,16.65999984741211
6.899195827213378,0.1146799996495246,-0.8998720049858093,0.3938159942626953,-27.42250061035156,-6.422500133514404,15.34749984741211
6.919428073040984,0.1168759986758232,-0.9545279741287231,0.3781999945640564,-25.252500534057617,-4.637499809265137,9.5024995803833
6.939660318868589,0.1449359953403473,-1.0128439664840698,0.4250479936599731,-15.452500343322754,-4.567500114440918,1.662500023841858
6.959892564696195,0.1495719999074936,-0.8618080019950867,0.4599399864673614,-10.43000030517578,-9.414999961853027,6.737500190734863
6.9801248105238,0.0983319953083992,-0.9789279699325562,0.4487159848213196,-32.91749954223633,-27.96500015258789,21.875
7.0003570563514055,0.0287919994443655,-0.965507984161377,0.3291559815406799,-15.102499961853027,-28.82250022888184,16.25749969482422
7.020589302179011,-0.0417240001261234,-1.1480200290679932,0.2598600089550018,-12.72249984741211,-30.64249992370605,15.207500457763672
7.040821548006616,-0.1434720009565353,-1.3632279634475708,0.153231993317604,-10.552499771118164,-41.26499938964844,3.5350000858306885
7.061053793834222,-0.1888559907674789,-1.3312640190124512,0.1097999960184097,5.197500228881836,-52.09749984741211,-19.739999771118164
7.081286039661827,-0.1190719977021217,-1.1760799884796145,0.0217159986495971,29.225000381469727,-56.647499084472656,-32.39250183105469
7.1015182854894325,-0.0990639999508857,-1.0223599672317505,0.0143959997221827,45.63999938964844,-52.657501220703125,-21.717500686645508
7.121750531317038,-0.0500199981033802,-1.0316319465637207,0.095891997218132,45.23749923706055,-49.0525016784668,2.362499952316284
7.141982777144643,-0.0214719995856285,-1.123863935470581,0.1515239924192428,46.27000045776367,-24.09749984741211,24.09749984741211
7.162215022972249,-0.0551439970731735,-1.1763240098953247,0.1485960036516189,51.345001220703125,-12.21500015258789,31.13249969482422
7.182447268799854,-0.0722239986062049,-1.0545679330825806,0.1956879943609237,61.14500045776367,-16.729999542236328,20.09000015258789
7.20267951462746,-0.0968680009245872,-0.915731966495514,0.2378999888896942,71.73249816894531,-18.375,9.520000457763672
7.222911760455065,-0.1456679999828338,-0.7832399606704712,0.2596159875392914,65.60749816894531,-14.822500228881836,9.292500495910645
7.24314400628267,-0.1097999960184097,-0.868395984172821,0.301827996969223,47.26750183105469,-13.789999961853027,12.162500381469728
7.263376252110276,-0.0378200002014637,-0.9067040085792542,0.3413559794425964,37.99250030517578,-2.432500123977661,16.607500076293945
7.283608497937881,-0.1015039980411529,-0.9445239901542664,0.3118319809436798,21.104999542236328,10.237500190734863,24.674999237060547
7.303840743765487,-0.2020319998264312,-0.9708759784698486,0.2928000092506408,18.917499542236328,6.440000057220459,27.299999237060547
7.324072989593092,-0.2193560004234314,-0.90938800573349,0.3376959860324859,25.5674991607666,-1.4350000619888306,25.217500686645508
7.3443052354206975,-0.187391996383667,-0.8012959957122803,0.3533119857311249,20.475000381469727,-4.742499828338623,21.94499969482422
7.364537481248303,-0.1742160022258758,-0.8400920033454895,0.3459919989109039,14.647500038146973,-3.0274999141693115,21.997499465942383
7.384769727075908,-0.1688479930162429,-0.8408240079879761,0.3860079944133758,12.6875,-3.447499990463257,20.86000061035156
7.405001972903514,-0.1490840017795562,-0.8376519680023193,0.3830800056457519,9.414999961853027,-1.8025000095367432,14.770000457763672
7.425234218731119,-0.095160000026226,-0.8239879608154297,0.3811279833316803,8.452500343322754,-1.2424999475479126,5.494999885559082
7.4454664645587245,-0.0353799983859062,-0.8461920022964478,0.4006479978561401,5.565000057220459,-0.962499976158142,-2.065000057220459
7.46569871038633,-0.0207399986684322,-0.8996279835700989,0.4082120060920715,2.677500009536743,0.3849999904632568,-7.349999904632568
7.485930956213935,-0.0590479969978332,-0.935252010822296,0.3823480010032654,3.640000104904175,1.8550000190734863,-11.725000381469728
7.506163202041541,-0.0985759943723678,-0.9635559916496276,0.3516039848327636,5.53000020980835,2.9049999713897705,-16.170000076293945
7.526395447869146,-0.0871080011129379,-0.9289079904556274,0.3601439893245697,6.772500038146973,2.065000057220459,-21.052499771118164
7.546627693696752,-0.0736880004405975,-0.8657119870185852,0.3896679878234863,3.884999990463257,2.677500009536743,-23.729999542236328
7.566859939524357,-0.1334680020809173,-0.901091992855072,0.3847880065441131,-4.829999923706055,6.615000247955322,-20.3174991607666
7.587092185351962,-0.2110600024461746,-0.974291980266571,0.3513599932193756,-12.61750030517578,6.492499828338623,-12.5649995803833
7.607324431179568,-0.1844639927148819,-0.9679479598999025,0.3494080007076263,-10.272500038146973,3.377500057220459,-7.909999847412109
7.627556677007173,-0.0839359983801841,-0.9340319633483888,0.3662439882755279,-3.7799999713897705,2.0299999713897705,-7.28000020980835
7.647788922834779,0.0119559997692704,-0.9269559979438782,0.3533119857311249,-1.277500033378601,5.652500152587891,-7.735000133514404
7.668021168662384,0.0192760005593299,-0.9298839569091796,0.2886520028114319,-4.53249979019165,10.289999961853027,-7.420000076293945
7.6882534144899894,0.002195999957621,-0.9350079894065856,0.2879199981689453,-9.397500038146973,12.774999618530272,-6.019999980926514
7.708485660317595,-0.0439199991524219,-0.9401319622993468,0.3320840001106262,-12.28499984741211,15.68000030517578,-4.550000190734863
7.7287179061452,-0.0712479948997497,-0.932811975479126,0.3625839948654175,-10.307499885559082,17.290000915527344,-5.425000190734863
7.748950151972806,-0.0661239996552467,-0.901579976081848,0.3611199855804443,-6.545000076293945,16.59000015258789,-7.752500057220459
7.769182397800411,-0.062219999730587,-0.92085599899292,0.3555079996585846,-5.652500152587891,15.767499923706056,-8.260000228881836
7.7894146436280165,-0.0453839972615242,-0.9672159552574158,0.3396480083465576,-5.740000247955322,14.175000190734863,-6.965000152587891
7.809646889455622,-0.0407480001449584,-0.9698999524116516,0.3337920010089874,-4.917500019073486,10.744999885559082,-5.617499828338623
7.829879135283227,-0.0580720007419586,-0.948915958404541,0.3320840001106262,-6.545000076293945,8.137499809265137,-4.427500247955322
7.850111381110833,-0.0639280006289482,-0.9547719955444336,0.3616079986095428,-7.735000133514404,8.487500190734863,-5.162499904632568
7.870343626938438,-0.0514839999377727,-0.9435479640960692,0.3567279875278473,-7.997499942779541,9.7475004196167,-6.877500057220459
7.8905758727660436,-0.0334279984235763,-0.9628239870071412,0.3291559815406799,-5.582499980926514,7.980000019073486,-6.177500247955322
7.910808118593649,-0.0195199996232986,-0.9491599798202516,0.333547979593277,0.2450000047683715,3.6050000190734863,-4.707499980926514
7.931040364421254,-0.0134199997410178,-0.9335439801216124,0.3508719801902771,0.0350000001490116,4.130000114440918,-5.232500076293945
7.95127261024886,-0.0585599988698959,-0.9464759826660156,0.3254959881305694,-4.340000152587891,6.142499923706055,-5.740000247955322
7.971504856076465,-0.0334279984235763,-0.9462319612503052,0.3267160058021545,-1.5575000047683716,4.637499809265137,-6.247499942779541
7.991737101904071,-0.0507519990205764,-0.9491599798202516,0.3379400074481964,-0.6825000047683716,5.057499885559082,-3.377500057220459
8.011969347731675,-0.0243999995291233,-0.9289079904556274,0.3601439893245697,0.962499976158142,2.887500047683716,-6.579999923706055
8.03220159355928,-0.0275719985365867,-0.9401319622993468,0.3430639803409576,-2.134999990463257,3.307500123977661,-7.210000038146973
8.052433839386886,-0.0239119995385408,-0.9423279762268066,0.3491639792919159,-4.952499866485596,4.567500114440918,-4.865000247955322
8.072666085214491,-0.0344039984047412,-0.952575981616974,0.3284240067005157,-5.617499828338623,3.552500009536743,-1.662500023841858
8.092898331042097,-0.0300120003521442,-0.9450119733810424,0.3459919989109039,-4.007500171661377,1.3825000524520874,-0.8575000166893005
8.113130576869702,-0.0222040005028247,-0.944279968738556,0.3450160026550293,-5.460000038146973,1.7324999570846558,-1.4700000286102295
8.133362822697308,-0.0212280005216598,-0.9450119733810424,0.3281799852848053,-5.932499885559082,2.345000028610229,-1.2424999475479126
8.153595068524913,-0.0229359995573759,-0.9486719965934752,0.3240320086479187,-4.007500171661377,1.3300000429153442,-1.347499966621399
8.173827314352518,-0.0151279997080564,-0.9496479630470276,0.3315959870815277,0.3675000071525574,0.1574999988079071,-3.0450000762939453
8.194059560180124,-0.0126879997551441,-0.9459879994392396,0.3540439903736114,1.3825000524520874,0.2100000083446502,-2.992500066757202
8.21429180600773,-0.0082959998399019,-0.9518439769744872,0.3474559783935547,-0.2275000065565109,0.3149999976158142,-1.8200000524520876
8.234524051835335,-0.0129319997504353,-0.95306396484375,0.3472119867801666,0.2450000047683715,0.9100000262260436,-1.4350000619888306
8.25475629766294,0.0012199999764561,-0.948915958404541,0.3459919989109039,-1.0674999952316284,1.277500033378601,-1.6100000143051147
8.274988543490545,0.0014639999717473,-0.9428159594535828,0.3423320055007934,-3.692500114440918,1.924999952316284,-0.9100000262260436
8.29522078931815,-0.0168359987437725,-0.94159597158432,0.326227992773056,-6.212500095367432,1.5924999713897705,-1.2599999904632568
8.315453035145756,-0.0143959997221827,-0.9479399919509888,0.3320840001106262,-6.335000038146973,-0.2100000083446502,-3.552500009536743
8.335685280973362,-0.0224479995667934,-0.9569680094718932,0.3372080028057098,-5.914999961853027,0.612500011920929,-2.712500095367432
8.355917526800967,-0.0107359997928142,-0.9501360058784484,0.3196399807929992,-7.332499980926514,0.5774999856948853,-5.425000190734863
8.376149772628573,-0.0292799994349479,-0.9418399930000304,0.3076840043067932,-5.039999961853027,-0.0350000001490116,-7.647500038146973
8.396382018456178,0.0102479998022317,-0.944279968738556,0.3369639813899994,-3.6575000286102295,0.0350000001490116,-15.994999885559082
8.416614264283783,-0.0170799996703863,-0.945743978023529,0.3359879851341247,-7.787499904632568,2.799999952316284,-10.86750030517578
8.436846510111389,0.0507519990205764,-0.9725840091705322,0.3132959902286529,-10.605000495910645,7.647500038146973,-17.815000534057617
8.457078755938994,0.0085399998351931,-0.9491599798202516,0.3140279948711395,-4.235000133514404,9.274999618530272,-5.599999904632568
8.4773110017666,-0.0034159999340772,-0.9423279762268066,0.310368001461029,-1.3650000095367432,3.587500095367432,-0.2800000011920929
8.497543247594205,-0.0007319999858736,-0.9515999555587769,0.310368001461029,-1.4700000286102295,0.2450000047683715,-0.0175000000745058
8.51777549342181,-0.003171999938786,-0.957211971282959,0.314516007900238,-1.8550000190734863,0.0874999985098838,1.0674999952316284
8.538007739249416,-0.0024399999529123,-0.9506239891052246,0.3215920031070709,-1.1024999618530271,0.4200000166893005,1.5924999713897705
8.558239985077021,0.0007319999858736,-0.946720004081726,0.3125639855861664,-2.852499961853028,0.4550000131130218,2.345000028610229
8.578472230904627,-0.0017079999670386,-0.9437919855117798,0.301827996969223,-2.6424999237060547,-0.332500010728836,1.8899999856948853
8.598704476732232,-0.0034159999340772,-0.9513559937477112,0.3035359978675842,-2.345000028610229,-0.699999988079071,1.8725000619888303
8.618936722559837,-0.0065879998728632,-0.9628239870071412,0.3106119930744171,-2.309999942779541,0.2275000065565109,2.275000095367432
8.639168968387443,-0.0036599999293684,-0.9689239859580994,0.317931979894638,-2.2225000858306885,0.9275000095367432,2.2225000858306885
8.659401214215048,-0.006343999877572,-0.9594079852104188,0.314516007900238,-2.2049999237060547,1.627500057220459,1.924999952316284
8.679633460042654,-0.0075639998540282,-0.9611159563064576,0.3084160089492798,-1.837499976158142,1.0325000286102295,1.715000033378601
8.699865705870259,-0.0168359987437725,-0.9642879962921144,0.3137840032577514,-0.9275000095367432,0.7175000309944153,2.2049999237060547
8.720097951697865,-0.0158599987626075,-0.9628239870071412,0.3162239789962768,-0.2450000047683715,-0.8050000071525574,1.627500057220459
8.74033019752547,-0.0075639998540282,-0.9513559937477112,0.3250080049037933,0.3675000071525574,-0.0700000002980232,1.5750000476837158
8.760562443353075,-0.0134199997410178,-0.9464759826660156,0.3154920041561126,-0.3849999904632568,0.5600000023841858,1.9774999618530276
8.78079468918068,-0.0190319996327161,-0.9435479640960692,0.3096359968185425,-0.3149999976158142,-1.6449999809265137,1.4350000619888306
8.801026935008286,-0.0170799996703863,-0.9518439769744872,0.3206160068511963,-0.4550000131130218,-3.6050000190734863,0.9975000023841858
8.821259180835892,-0.0075639998540282,-0.9598959684371948,0.3225679993629455,-0.4724999964237213,-2.9749999046325684,1.2424999475479126
8.841491426663497,-0.010491999797523,-0.9557479619979858,0.321835994720459,-0.3149999976158142,-2.2049999237060547,1.8899999856948853
8.861723672491102,-0.0156159996986389,-0.9564799666404724,0.313539981842041,-0.0700000002980232,-2.852499961853028,1.8025000095367432
8.881955918318708,-0.0078079998493194,-0.9476959705352784,0.3074399828910827,0.5425000190734863,-5.985000133514404,1.715000033378601
8.902188164146313,-0.013663999736309,-0.958187997341156,0.3264719843864441,-1.4524999856948853,-3.972500085830689,2.0299999713897705
8.922420409973919,-0.0102479998022317,-0.9564799666404724,0.322079986333847,-0.699999988079071,-2.6424999237060547,1.75
8.942652655801524,-0.0168359987437725,-0.9486719965934752,0.3167119920253753,-0.1400000005960464,0.4724999964237213,1.190000057220459
8.96288490162913,-0.0187879987061023,-0.952575981616974,0.3084160089492798,0.1574999988079071,-0.1400000005960464,0.8400000333786011
8.983117147456735,-0.0158599987626075,-0.954039990901947,0.3111000061035156,2.694999933242798,-2.799999952316284,1.2949999570846558
9.00334939328434,-0.0121999997645616,-0.9450119733810424,0.3235439956188202,3.587500095367432,-4.53249979019165,1.995000004768372
9.023581639111946,-0.0153719997033476,-0.9506239891052246,0.3181760013103485,1.6449999809265137,-4.147500038146973,1.8200000524520876
9.043813884939551,-0.0178119987249374,-0.9435479640960692,0.3191519975662231,2.065000057220459,-3.692500114440918,1.837499976158142
9.064046130767156,-0.0212280005216598,-0.949891984462738,0.3123199939727783,0.6825000047683716,-1.7675000429153442,1.3125
9.084278376594762,-0.0192760005593299,-0.9535520076751708,0.3111000061035156,-0.0175000000745058,-1.627500057220459,1.1725000143051147
9.104510622422367,-0.0129319997504353,-0.9535520076751708,0.3196399807929992,0.3675000071525574,-2.047499895095825,1.4175000190734863
9.124742868249973,-0.0129319997504353,-0.9511119723320008,0.3203719854354858,-0.8224999904632568,0.4025000035762787,1.4524999856948853
9.144975114077578,-0.0156159996986389,-0.949404001235962,0.3152479827404022,-2.4674999713897705,2.345000028610229,1.3125
9.165207359905184,-0.0226919986307621,-0.9542839527130128,0.3164680004119873,-3.325000047683716,0.7350000143051147,1.9774999618530276
9.185439605732789,-0.023667998611927,-0.9533079862594604,0.3191519975662231,-2.117500066757202,-0.5425000190734863,1.6100000143051147
9.205671851560394,-0.0224479995667934,-0.954039990901947,0.3181760013103485,-0.7524999976158142,-1.4874999523162842,1.5399999618530271
9.225904097388,-0.0192760005593299,-0.9567239880561828,0.3203719854354858,-0.6650000214576721,-1.5750000476837158,1.627500057220459
9.246136343215605,-0.0214719995856285,-0.9608719944953918,0.3132959902286529,-1.5399999618530271,-0.699999988079071,1.4700000286102295
9.26636858904321,-0.0248879995197057,-0.9579439759254456,0.3076840043067932,-0.9275000095367432,-0.6474999785423279,1.4524999856948853
9.286600834870816,-0.0248879995197057,-0.957211971282959,0.3093920052051544,0.2100000083446502,-1.2074999809265137,1.5750000476837158
9.306833080698421,-0.0222040005028247,-0.9601399898529052,0.3108559846878052,0.3675000071525574,-2.0299999713897705,1.7675000429153442
9.327065326526027,-0.0224479995667934,-0.9601399898529052,0.30621999502182,0.5425000190734863,-1.75,1.3650000095367432
9.347297572353632,-0.0175679996609687,-0.952575981616974,0.3089039921760559,1.2949999570846558,-1.8899999856948853,1.0325000286102295
9.367529818181238,-0.020983999595046,-0.9550159573554992,0.3057319819927215,0.8400000333786011,-1.924999952316284,0.9100000262260436
9.387762064008843,-0.0224479995667934,-0.9557479619979858,0.3079279959201813,0.875,-2.502500057220459,0.8575000166893005
9.407994309836448,-0.0202520005404949,-0.9545279741287231,0.3093920052051544,0.0525000020861625,-2.3975000381469727,0.5600000023841858
9.428226555664054,-0.0190319996327161,-0.95306396484375,0.305976003408432,-0.4025000035762787,-1.4524999856948853,0.2450000047683715
9.44845880149166,-0.0212280005216598,-0.9520879983901978,0.3032920062541961,-0.262499988079071,-1.0850000381469729,0.2450000047683715
9.468691047319265,-0.0202520005404949,-0.9569680094718932,0.305976003408432,-0.0700000002980232,-1.715000033378601,0.6474999785423279
9.48892329314687,-0.0202520005404949,-0.9594079852104188,0.3076840043067932,-0.1749999970197677,-1.1024999618530271,0.5425000190734863
9.509155538974476,-0.023667998611927,-0.9562360048294068,0.3045119941234588,-0.1400000005960464,-0.4375,0.3499999940395355
9.529387784802081,-0.0248879995197057,-0.952575981616974,0.3067080080509186,0.5249999761581421,-0.962499976158142,0.4900000095367431
9.549620030629686,-0.023667998611927,-0.9535520076751708,0.3050000071525574,0.4025000035762787,-1.399999976158142,0.5074999928474426
9.569852276457292,-0.0229359995573759,-0.9574559926986694,0.3067080080509186,0.2975000143051147,-1.2424999475479126,0.2275000065565109
9.590084522284897,-0.0226919986307621,-0.958187997341156,0.3076840043067932,0.9100000262260436,-0.699999988079071,0.2275000065565109
9.610316768112503,-0.0263519994914531,-0.9557479619979858,0.3091479837894439,1.190000057220459,-0.5074999928474426,0.1400000005960464
9.630549013940108,-0.0258639995008707,-0.9528200030326844,0.3054879903793335,0.4375,-0.5774999856948853,0.1225000023841857
9.650781259767713,-0.0241560004651546,-0.9520879983901978,0.3081719875335693,0.4900000095367431,-0.875,0.1924999952316284
9.671013505595319,-0.0234239995479583,-0.9520879983901978,0.3111000061035156,-0.1050000041723251,-0.6299999952316284,0.2100000083446502
9.691245751422924,-0.0256199985742568,-0.9552599787712096,0.3054879903793335,-0.7350000143051147,-0.3499999940395355,0.4550000131130218
9.71147799725053,-0.0273279994726181,-0.957211971282959,0.3054879903793335,-0.5074999928474426,-0.332500010728836,0.699999988079071
9.731710243078135,-0.0275719985365867,-0.9547719955444336,0.3064639866352081,0.0874999985098838,-0.875,0.9100000262260436
9.75194248890574,-0.0295239984989166,-0.9628239870071412,0.3045119941234588,0.0700000002980232,-1.399999976158142,0.9449999928474426
9.772174734733346,-0.0326960012316703,-0.9616039991378784,0.2984119951725006,-0.3499999940395355,-0.7524999976158142,0.3849999904632568
9.792406980560951,-0.032940000295639,-0.9579439759254456,0.2993879914283752,-0.0525000020861625,-0.612500011920929,0.1574999988079071
9.812639226388557,-0.0322079993784427,-0.9535520076751708,0.297435998916626,-0.262499988079071,-0.8400000333786011,0.2275000065565109
9.832871472216162,-0.0344039984047412,-0.9537959694862366,0.2971920073032379,-0.9100000262260436,-0.7350000143051147,0.4375
9.853103718043768,-0.0317199975252151,-0.9562360048294068,0.297679990530014,-1.9424999952316284,-0.6299999952316284,0.5774999856948853
9.873335963871373,-0.0287919994443655,-0.9528200030326844,0.2930440008640289,-2.309999942779541,-0.8050000071525574,0.3149999976158142
9.893568209698978,-0.0285479985177516,-0.9464759826660156,0.2879199981689453,-1.627500057220459,-2.0824999809265137,0.4900000095367431
9.913800455526584,-0.0300120003521442,-0.9469639658927916,0.2862119972705841,-1.277500033378601,-2.9574999809265137,0.7699999809265137
9.93403270135419,-0.0304999984800815,-0.9576999545097352,0.285968005657196,-1.837499976158142,-2.380000114440918,1.0325000286102295
9.954264947181795,-0.0334279984235763,-0.9637999534606934,0.2854799926280975,-1.924999952316284,-1.3650000095367432,1.7675000429153442
9.9744971930094,-0.0366000011563301,-0.9598959684371948,0.2823079824447632,-2.047499895095825,-0.8400000333786011,3.0450000762939453
9.994729438837005,-0.0368440002202987,-0.957211971282959,0.2737680077552795,-2.677500009536743,-0.5774999856948853,4.409999847412109
10.01496168466461,-0.0387960001826286,-0.958187997341156,0.2762079834938049,-3.674999952316284,0.332500010728836,5.215000152587891
10.035193930492216,-0.0356239974498748,-0.9713639616966248,0.2808440029621124,-3.5174999237060547,0.4724999964237213,5.40749979019165
10.055426176319822,-0.0361119993031024,-0.9667279720306396,0.2952399849891662,-0.5074999928474426,1.0325000286102295,5.302500247955322
10.075658422147427,-0.028303999453783,-0.972827970981598,0.3228119909763336,0.4375,-0.1574999988079071,4.340000152587891
10.095890667975032,-0.0175679996609687,-0.9725840091705322,0.3413559794425964,-0.3499999940395355,0.0350000001490116,2.5199999809265137
10.116122913802638,-0.018300000578165,-0.9681919813156128,0.3372080028057098,0.2975000143051147,0.699999988079071,0.8575000166893005
10.136355159630243,-0.0190319996327161,-0.9598959684371948,0.3337920010089874,3.902499914169312,-0.2275000065565109,-0.5950000286102295
10.156587405457849,-0.0217159986495971,-0.9425719976425172,0.3240320086479187,6.352499961853027,-0.6299999952316284,-2.012500047683716
10.176819651285454,-0.0222040005028247,-0.9252479672431946,0.3108559846878052,5.897500038146973,-0.9975000023841858,-2.765000104904175
10.19705189711306,-0.0190319996327161,-0.9381799697875975,0.2969479858875274,3.237499952316284,-1.3300000429153442,-2.852499961853028
10.217284142940665,-0.0200079996138811,-0.9454999566078186,0.2971920073032379,0.9100000262260436,-0.2975000143051147,-2.572499990463257
10.23751638876827,-0.0214719995856285,-0.9550159573554992,0.2984119951725006,-1.680000066757202,1.680000066757202,-1.9600000381469729
10.257748634595876,-0.0219599995762109,-0.9686799645423888,0.2937760055065155,-2.5199999809265137,3.184999942779541,-1.2599999904632568
10.277980880423481,-0.0265959985554218,-0.9662399888038636,0.2903600037097931,-1.2599999904632568,2.887500047683716,-0.8050000071525574
10.298213126251087,-0.0275719985365867,-0.9628239870071412,0.2918239831924438,0.3149999976158142,2.327500104904175,-1.0499999523162842
10.318445372078692,-0.0270840004086494,-0.9559919834136964,0.2954840064048767,1.2599999904632568,2.345000028610229,-1.6100000143051147
10.338677617906297,-0.0224479995667934,-0.9574559926986694,0.3023159801959991,0.6825000047683716,2.5899999141693115,-2.0824999809265137
10.358909863733903,-0.0202520005404949,-0.9667279720306396,0.297435998916626,0.962499976158142,2.4674999713897705,-1.924999952316284
10.379142109561508,-0.0165919996798038,-0.9601399898529052,0.3035359978675842,2.257499933242798,1.8550000190734863,-1.4700000286102295
10.399374355389114,-0.0139079997316002,-0.95306396484375,0.2991439998149872,2.362499952316284,2.327500104904175,-2.047499895095825
10.419606601216719,-0.0121999997645616,-0.9430599808692932,0.3006079792976379,2.887500047683716,2.765000104904175,-2.134999990463257
10.439838847044324,-0.0148839997127652,-0.9345200061798096,0.3040239810943603,2.432500123977661,2.9749999046325684,-2.1524999141693115
10.46007109287193,-0.0161039996892213,-0.9396439790725708,0.2989000082015991,0.8400000333786011,3.6050000190734863,-2.3975000381469727
10.480303338699535,-0.0175679996609687,-0.954039990901947,0.2871879935264587,-0.9449999928474426,4.865000247955322,-2.327500104904175
10.50053558452714,-0.0256199985742568,-0.9630680084228516,0.2884079813957214,-2.2925000190734863,6.125,-1.5225000381469729
10.520767830354746,-0.0339160002768039,-0.96697199344635,0.289139986038208,-3.5174999237060547,6.860000133514404,-0.5600000023841858
10.541000076182351,-0.0339160002768039,-0.9596520066261292,0.2901159822940826,-3.307500123977661,6.352499961853027,0.1225000023841857
10.561232322009957,-0.0339160002768039,-0.95306396484375,0.2888959944248199,-3.0975000858306885,5.460000038146973,0.3675000071525574
10.581464567837562,-0.0319640003144741,-0.9569680094718932,0.2862119972705841,-3.0450000762939453,4.777500152587891,0.5950000286102295
10.601696813665168,-0.0322079993784427,-0.96697199344635,0.293287992477417,-2.275000095367432,5.057499885559082,1.2599999904632568
10.621929059492773,-0.0307439994066953,-0.9606279730796814,0.2979239821434021,-1.4524999856948853,5.09250020980835,1.0674999952316284
10.642161305320379,-0.0248879995197057,-0.95306396484375,0.3050000071525574,-1.8200000524520876,4.514999866485596,0.5774999856948853
10.662393551147984,-0.0258639995008707,-0.9547719955444336,0.3023159801959991,-2.484999895095825,4.375,0.4375
10.68262579697559,-0.0302559994161129,-0.9476959705352784,0.3052439987659454,-2.5899999141693115,4.112500190734863,0.3849999904632568
10.702858042803195,-0.0370879992842674,-0.9550159573554992,0.3023159801959991,-3.430000066757202,4.042500019073486,0.1574999988079071
10.7230902886308,-0.0414799973368644,-0.9594079852104188,0.2979239821434021,-2.694999933242798,3.4825000762939453,-0.1050000041723251
10.743322534458406,-0.0427000001072883,-0.9567239880561828,0.3025600016117096,-2.257499933242798,3.3424999713897705,0.1400000005960464
10.763554780286011,-0.0453839972615242,-0.9616039991378784,0.3035359978675842,-3.255000114440918,2.6075000762939453,0.962499976158142
10.783787026113616,-0.052216000854969,-0.9591639637947084,0.2964600026607513,-3.237499952316284,1.3825000524520874,1.784999966621399
10.804019271941222,-0.0534359999001026,-0.9523319602012634,0.297435998916626,-2.799999952316284,0.2100000083446502,1.924999952316284
10.824251517768827,-0.0507519990205764,-0.9484279751777648,0.2923119962215423,-2.9749999046325684,-1.3125,2.0824999809265137
10.844483763596433,-0.0483120009303092,-0.9518439769744872,0.2896279990673065,-3.4124999046325684,-2.625,2.5199999809265137
10.864716009424038,-0.0509959980845451,-0.9445239901542664,0.2898719906806946,-3.867500066757202,-3.237499952316284,3.447499990463257
10.884948255251643,-0.0444080010056495,-0.9567239880561828,0.2827959954738617,-4.619999885559082,-3.5350000858306885,4.304999828338623
10.905180501079249,-0.0451399981975555,-0.9496479630470276,0.2820639908313751,-3.692500114440918,-4.199999809265137,4.322500228881836
10.925412746906854,-0.0463600009679794,-0.9528200030326844,0.2798680067062378,-4.514999866485596,-4.742499828338623,4.707499980926514
10.94564499273446,-0.0444080010056495,-0.9545279741287231,0.2801119983196258,-5.389999866485596,-5.355000019073486,5.09250020980835
10.965877238562065,-0.0431879982352256,-0.9562360048294068,0.2791360020637512,-6.597499847412109,-5.635000228881836,5.25
10.98610948438967,-0.0470919981598854,-0.9625799655914308,0.2754760086536407,-5.215000152587891,-6.492499828338623,5.057499885559082
11.006341730217276,-0.0470919981598854,-0.9625799655914308,0.2808440029621124,-5.144999980926514,-6.615000247955322,5.477499961853027
11.026573976044881,-0.0446520000696182,-0.9633119702339172,0.2864559888839721,-5.932499885559082,-6.632500171661377,5.96750020980835
11.046806221872487,-0.0461159981787204,-0.9706319570541382,0.2915799915790558,-5.582499980926514,-6.545000076293945,5.985000133514404
11.067038467700092,-0.0439199991524219,-0.9725840091705322,0.3032920062541961,-4.322500228881836,-7.034999847412109,5.599999904632568
11.087270713527698,-0.0431879982352256,-0.9750239849090576,0.3079279959201813,-4.340000152587891,-7.490000247955322,5.284999847412109
11.107502959355303,-0.0387960001826286,-0.977463960647583,0.3050000071525574,-2.677500009536743,-8.032500267028809,4.637499809265137
11.127735205182908,-0.0363559983670711,-0.97599995136261,0.3001199960708618,0.2450000047683715,-8.78499984741211,3.797500133514404
11.147967451010514,-0.0358680002391338,-0.975268006324768,0.3001199960708618,1.6449999809265137,-8.645000457763672,3.184999942779541
11.16819969683812,-0.0427000001072883,-0.9757559895515442,0.3003639876842499,1.399999976158142,-8.855000495910645,2.625
11.188431942665725,-0.0512399971485137,-0.975268006324768,0.2925559878349304,0.9975000023841858,-8.732500076293945,2.240000009536743
11.20866418849333,-0.05197199806571,-0.9720959663391112,0.2866999804973602,1.995000004768372,-8.172499656677246,2.2225000858306885
11.228896434320935,-0.0500199981033802,-0.9803919792175292,0.293531984090805,2.6600000858306885,-7.192500114440918,2.3975000381469727
11.24912868014854,-0.0487999990582466,-0.9808799624443054,0.3037799894809723,2.1875,-5.775000095367432,1.995000004768372
11.269360925976146,-0.0500199981033802,-0.9801479578018188,0.3096359968185425,-1.347499966621399,-1.5750000476837158,1.3125
11.289593171803752,-0.0490439981222152,-0.9835639595985411,0.2725479900836944,-6.772500038146973,9.852499961853027,-1.225000023841858
11.309825417631357,-0.0834480002522468,-0.9777079820632936,0.2466839998960495,6.440000057220459,12.949999809265137,1.6449999809265137
11.330057663458962,-0.0934519991278648,-0.9674599766731262,0.2913359999656677,7.034999847412109,6.702499866485596,15.225000381469728
11.350289909286568,-0.1678719967603683,-1.0003999471664429,0.2727919816970825,3.552500009536743,11.952500343322754,15.38249969482422
11.370522155114173,-0.1607960015535354,-0.9877119660377502,0.2727919816970825,8.3125,6.264999866485596,8.067500114440918
11.390754400941779,-0.1768999993801117,-0.9720959663391112,0.2762079834938049,10.447500228881836,-0.8400000333786011,8.3125
11.410986646769384,-0.1793399900197982,-0.9633119702339172,0.2662039995193481,12.337499618530272,-4.269999980926514,8.890000343322754
11.43121889259699,-0.1786080002784729,-0.9677039980888368,0.2820639908313751,14.80500030517578,-7.175000190734863,9.852499961853027
11.451451138424595,-0.1756799966096878,-0.9518439769744872,0.2979239821434021,16.59000015258789,-9.345000267028809,10.989999771118164
11.4716833842522,-0.1442039906978607,-0.94159597158432,0.301827996969223,17.290000915527344,-9.520000457763672,11.392499923706056
11.491915630079806,-0.1434720009565353,-0.9562360048294068,0.3064639866352081,14.47249984741211,-0.0525000020861625,11.725000381469728
11.512147875907411,-0.1290760040283203,-0.949891984462738,0.3091479837894439,12.057499885559082,0.5074999928474426,11.322500228881836
11.532380121735017,-0.1039439961314201,-0.9289079904556274,0.3396480083465576,12.914999961853027,-3.4825000762939453,10.605000495910645
11.552612367562622,-0.0683199986815452,-0.9250040054321288,0.3645359873771667,14.227499961853027,0.2800000011920929,7.367499828338623
11.572844613390227,-0.0595359988510608,-0.9235399961471558,0.3394039869308471,15.27750015258789,4.602499961853027,3.150000095367432
11.593076859217833,-0.0790559947490692,-0.8681519627571106,0.3193959891796112,17.079999923706055,7.927500247955322,-5.96750020980835
11.613309105045438,-0.1083360016345977,-0.880840003490448,0.3113439977169037,11.234999656677246,9.69499969482422,-9.449999809265137
11.633541350873044,-0.1422519981861114,-0.8815720081329346,0.3079279959201813,10.1850004196167,11.375,-13.457500457763672
11.653773596700649,-0.1493279933929443,-0.8920639753341675,0.3159799873828888,6.965000152587891,11.147500038146973,-15.837499618530272
11.674005842528254,-0.1525000035762787,-0.9086560010910034,0.3379400074481964,4.427500247955322,13.579999923706056,-18.655000686645508
11.69423808835586,-0.1424959897994995,-0.9223200082778932,0.3413559794425964,3.884999990463257,15.68000030517578,-21.0
11.714470334183465,-0.1280999928712844,-0.9215880036354064,0.334524005651474,4.8125,17.989999771118164,-22.837499618530277
11.73470258001107,-0.1259039938449859,-0.8966999650001526,0.3286679983139038,5.110000133514404,20.49250030517578,-24.2549991607666
11.754934825838676,-0.130295991897583,-0.8815720081329346,0.3147599995136261,2.1700000762939453,22.27750015258789,-24.850000381469727
11.775167071666282,-0.1578679978847503,-0.8747400045394897,0.3020719885826111,-2.992500066757202,25.287500381469727,-24.832500457763672
11.795399317493887,-0.1849519908428192,-0.8898679614067078,0.2886520028114319,-9.100000381469728,27.42250061035156,-24.395000457763672
11.815631563321492,-0.1790959984064102,-0.912559986114502,0.2954840064048767,-12.862500190734863,30.15250015258789,-23.887500762939453
11.835863809149098,-0.1844639927148819,-0.9149999618530272,0.2820639908313751,-15.907500267028809,33.51250076293945,-23.957500457763672
11.856096054976703,-0.2005679905414581,-0.9152439832687378,0.2391199916601181,-18.655000686645508,33.897499084472656,-25.6200008392334
11.876328300804309,-0.1790959984064102,-0.9076799750328064,0.2225279957056045,-20.86000061035156,35.17499923706055,-28.174999237060547
11.896560546631914,-0.1476199924945831,-0.8966999650001526,0.1934919953346252,-20.299999237060547,36.73250198364258,-31.780000686645508
11.91679279245952,-0.1554279923439026,-0.8869400024414062,0.1464000046253204,-23.450000762939453,41.5099983215332,-33.459999084472656
11.937025038287125,-0.1629920005798339,-0.9325679540634156,0.1127279996871948,-30.852500915527344,42.90999984741211,-32.217498779296875
11.95725728411473,-0.1080919951200485,-1.0450519323349,0.1615279912948608,-31.63999938964844,49.647499084472656,-32.375
11.977489529942336,-0.1293199956417083,-1.166808009147644,0.1422519981861114,-22.190000534057617,54.775001525878906,-28.542499542236328
11.997721775769941,-0.1564040035009384,-1.120203971862793,0.1510359942913055,-1.5399999618530271,50.8025016784668,-24.045000076293945
12.017954021597546,-0.1036999970674514,-0.9803919792175292,0.2676680088043213,18.14750099182129,46.375,-24.5
12.038186267425152,-0.020983999595046,-0.9315919876098632,0.3289119899272918,26.145000457763672,48.93000030517578,-24.46500015258789
12.058418513252757,0.0595359988510608,-0.9445239901542664,0.3289119899272918,27.002500534057617,51.69499969482422,-20.229999542236328
12.078650759080363,0.1217559948563575,-1.014307975769043,0.3101239800453186,17.989999771118164,55.05500030517578,-13.440000534057615
12.098883004907968,0.1788519918918609,-1.1148359775543213,0.2871879935264587,4.65500020980835,54.09249877929688,-6.947500228881836
12.119115250735573,0.1793399900197982,-1.1267919540405271,0.3010959923267364,-2.432500123977661,53.8650016784668,-8.032500267028809
12.139347496563179,0.1415199935436248,-1.0287039279937744,0.3250080049037933,-3.4649999141693115,58.29249954223633,-18.462499618530277
12.159579742390784,0.1149239987134933,-0.9650200009346008,0.3779560029506683,-13.702500343322754,62.47499847412109,-26.02250099182129
12.17981198821839,0.0883279964327812,-1.0496879816055298,0.4086999893188476,-27.545000076293945,65.9749984741211,-25.917499542236328
12.200044234045995,0.0814960002899169,-1.1311839818954468,0.3498959839344024,-20.475000381469727,69.125,-23.362499237060547
12.2202764798736,0.0424560010433197,-1.051151990890503,0.3098799884319305,-14.017499923706056,68.47750091552734,-21.997499465942383
12.240508725701206,0.0441639982163906,-0.9237839579582214,0.3257399797439575,-10.13249969482422,64.61000061035156,-24.045000076293945
12.260740971528811,0.0780799984931945,-0.8274039626121521,0.342087984085083,-11.952500343322754,64.2249984741211,-25.795000076293945
12.280973217356417,0.1410319954156875,-0.7920239567756653,0.3315959870815277,-16.625,70.03500366210938,-25.707500457763672
12.301205463184022,0.1995919942855835,-0.8005639910697937,0.2876760065555572,-18.34000015258789,78.80249786376953,-24.325000762939453
12.321437709011628,0.2281399965286255,-0.8371639847755432,0.2452199906110763,-15.539999961853027,86.76499938964844,-21.559999465942383
12.341669954839233,0.1937360018491745,-0.8908439874649048,0.187391996383667,-11.6899995803833,92.68000030517578,-18.217500686645508
12.361902200666838,0.143227994441986,-0.9306159615516664,0.1722639948129654,-5.862500190734863,95.62000274658205,-14.315000534057615
12.382134446494444,0.0971119999885559,-0.936959981918335,0.1888559907674789,-0.6650000214576721,99.94249725341795,-12.355000495910645
12.40236669232205,0.0761279985308647,-0.9576999545097352,0.196175992488861,0.6299999952316284,106.2249984741211,-12.022500038146973
12.422598938149655,0.0761279985308647,-1.0062559843063354,0.1890999972820282,1.0499999523162842,112.77000427246094,-12.862500190734863
12.44283118397726,0.076615996658802,-1.0494439601898191,0.1708000004291534,2.0299999713897705,118.35250091552734,-13.877500534057615
12.463063429804865,0.0631959959864616,-1.0643279552459717,0.1415199935436248,4.427500247955322,122.63999938964844,-14.80500030517578
12.483295675632471,0.0478239990770816,-1.043344020843506,0.1215119957923889,7.735000133514404,124.54750061035156,-15.364999771118164
12.503527921460076,0.0300120003521442,-0.9928359985351562,0.1219999939203262,10.272500038146973,124.3375015258789,-14.90999984741211
12.523760167287682,0.0148839997127652,-0.935983955860138,0.1168759986758232,8.015000343322754,125.5625,-13.824999809265137
12.543992413115287,0.009515999816358,-0.935252010822296,0.1134599968791008,-0.2800000011920929,127.43499755859376,-12.72249984741211
12.564224658942893,0.0161039996892213,-0.9686799645423888,0.1110199987888336,-9.274999618530272,129.2899932861328,-12.5649995803833
12.584456904770498,0.0014639999717473,-1.0389519929885864,0.0873520001769065,-14.980000495910645,130.95249938964844,-13.15999984741211
12.604689150598103,-0.0014639999717473,-1.0528600215911863,0.0844239965081214,-13.912500381469728,130.47999572753906,-13.265000343322754
12.624921396425709,-0.0387960001826286,-1.0716480016708374,0.0592919997870922,-12.109999656677246,130.1125030517578,-12.582500457763672
12.645153642253314,-0.0331839993596077,-1.0460280179977417,0.0405040010809898,-6.615000247955322,129.7449951171875,-13.177499771118164
12.66538588808092,-0.0422119982540607,-1.0040600299835205,-0.0114679997786879,-4.777500152587891,131.09249877929688,-12.512499809265137
12.685618133908525,-0.0314759984612464,-0.986735999584198,-0.0146399997174739,-4.357500076293945,132.03750610351562,-11.392499923706056
12.70585037973613,-0.023667998611927,-0.9935680031776428,-0.0124439997598528,-3.4124999046325684,134.03250122070312,-11.024999618530272
12.726082625563736,-0.0361119993031024,-1.0279719829559326,0.0082959998399019,-1.4524999856948853,135.97500610351562,-10.6225004196167
12.746314871391341,-0.0402599982917308,-1.0187000036239624,0.0302559994161129,3.184999942779541,135.1699981689453,-10.53499984741211
12.766547117218947,-0.0588039979338645,-1.051151990890503,0.0356239974498748,7.507500171661377,132.61500549316406,-11.199999809265137
12.786779363046552,-0.0670999959111213,-1.0389519929885864,0.0380639992654323,16.292499542236328,127.47000122070312,-13.6850004196167
12.807011608874157,-0.0495319999754428,-0.9799039959907532,0.0597799979150295,30.450000762939453,112.15750122070312,-17.6924991607666
12.827243854701763,-0.0387960001826286,-0.9459879994392396,0.090279996395111,30.957500457763672,104.84249877929688,-18.252500534057617
12.847476100529368,-0.0085399998351931,-0.9284200072288512,0.0954039990901947,24.832500457763672,102.35749816894533,-17.219999313354492
12.867708346356974,-0.0146399997174739,-0.9552599787712096,0.1112639978528022,17.552499771118164,103.37249755859376,-16.852500915527344
12.887940592184579,-0.0253759995102882,-1.0191879272460938,0.1525000035762787,8.539999961853027,102.25250244140624,-20.352500915527344
12.908172838012185,-0.0290360003709793,-1.1070280075073242,0.2020319998264312,-1.5575000047683716,100.69499969482422,-29.225000381469727
12.92840508383979,-0.0197639986872673,-1.2024319171905518,0.1956879943609237,-9.59000015258789,103.8625030517578,-42.665000915527344
12.948637329667395,0.0004879999905824,-1.1602200269699097,0.1271239966154098,-3.115000009536743,111.07250213623048,-50.73250198364258
12.968869575495,-0.1427399963140487,-1.0255320072174072,0.1056519970297813,14.227499961853027,113.76750183105467,-40.38999938964844
12.989101821322606,-0.2798680067062378,-0.9901520013809204,0.2137439996004104,28.84000015258789,109.86499786376952,-20.912500381469727
13.009334067150212,-0.2796239852905273,-0.981611967086792,0.2561999857425689,38.0625,111.17749786376952,-13.789999961853027
13.029566312977817,-0.2149640023708343,-0.9340319633483888,0.2686440050601959,44.29249954223633,119.84000396728516,-20.70249938964844
13.049798558805422,-0.17323999106884,-1.0104039907455444,0.2274079918861389,40.494998931884766,129.0800018310547,-32.287498474121094
13.070030804633028,-0.1808039993047714,-1.039440035820007,0.2498559951782226,43.01499938964844,134.59249877929688,-41.09000015258789
13.090263050460633,-0.1664080023765564,-1.032364010810852,0.2869440019130707,51.97499847412109,139.7375030517578,-42.244998931884766
13.110495296288239,-0.1459119915962219,-1.0238239765167236,0.249123990535736,60.900001525878906,146.28250122070312,-38.46500015258789
13.130727542115844,-0.1527439951896667,-1.0047919750213623,0.2098399996757507,62.52750015258789,152.6699981689453,-35.01750183105469
13.15095978794345,-0.1610399931669235,-0.9445239901542664,0.2335079908370971,56.4900016784668,155.43499755859375,-33.775001525878906
13.171192033771055,-0.1546960026025772,-0.8913319706916809,0.2967039942741394,45.32500076293945,154.07000732421875,-33.38999938964844
13.19142427959866,-0.1354199945926666,-0.8996279835700989,0.3147599995136261,38.77999877929688,152.74000549316406,-35.47249984741211
13.211656525426266,-0.1312720030546188,-0.9003599882125854,0.2949959933757782,44.32749938964844,152.56500244140625,-38.08000183105469
13.231888771253871,-0.1222440004348754,-0.8173999786376953,0.2652280032634735,53.40999984741211,155.38250732421875,-39.25249862670898
13.252121017081476,-0.1215119957923889,-0.795195996761322,0.2527839839458465,48.772499084472656,158.75999450683594,-35.94499969482422
13.272353262909082,-0.1200480014085769,-0.8327719569206238,0.2852360010147095,40.51250076293945,156.5550079345703,-33.6349983215332
13.292585508736687,-0.1010159999132156,-0.8647359609603882,0.334524005651474,40.67000198364258,148.5050048828125,-37.345001220703125
13.312817754564293,-0.0946719944477081,-0.8793759942054749,0.3852759897708893,43.119998931884766,140.0,-43.75
13.333050000391898,-0.1124840006232261,-0.8796199560165405,0.4226079881191253,44.25749969482422,132.61500549316406,-48.98250198364258
13.353282246219504,-0.0775920003652572,-0.8503400087356567,0.4553039968013763,42.75249862670898,127.27750396728516,-52.79750061035156
13.373514492047109,-0.0763719975948333,-0.8452159762382507,0.4333440065383911,35.647499084472656,124.4250030517578,-49.4375
13.393746737874714,-0.1212679967284202,-0.8425319790840149,0.4040639996528625,26.9325008392334,119.06999969482422,-44.380001068115234
13.41397898370232,-0.1332239955663681,-0.8393599987030029,0.4745799899101257,24.184999465942383,106.6449966430664,-41.02000045776367
13.434211229529925,-0.0885719954967498,-0.8705919981002808,0.48921999335289,26.582500457763672,104.79000091552734,-43.6974983215332
13.45444347535753,-0.0556319989264011,-0.8747400045394897,0.4699440002441406,27.86000061035156,101.04499816894533,-44.852500915527344
13.474675721185136,-0.0678320005536079,-0.8449719548225403,0.4553039968013763,25.1299991607666,95.39250183105467,-41.40499877929688
13.494907967012741,-0.0900359973311424,-0.8264279961585999,0.4721399843692779,19.075000762939453,88.4800033569336,-34.89500045776367
13.515140212840347,-0.0832040011882782,-0.8461920022964478,0.497759997844696,14.50749969482422,80.51750183105469,-29.96000099182129
13.535372458667952,-0.0773480013012886,-0.8664439916610718,0.5453400015830994,12.25,75.61750030517578,-30.677499771118164
13.555604704495558,-0.0922319963574409,-0.8852319717407227,0.5733999609947205,10.46500015258789,74.62000274658203,-35.29750061035156
13.575836950323163,-0.0990639999508857,-0.9027999639511108,0.5892599821090698,7.857500076293945,73.02750396728516,-40.54750061035156
13.596069196150768,-0.1520119905471801,-1.0648159980773926,0.5011759996414185,3.622499942779541,67.63749694824219,-44.99250030517578
13.616301441978374,-0.2076440006494522,-1.333948016166687,0.4067479968070984,3.640000104904175,61.07500076293945,-47.6875
13.63653368780598,-0.2964600026607513,-1.4940119981765747,0.2918239831924438,11.322500228881836,50.837501525878906,-46.567501068115234
13.656765933633585,-0.317931979894638,-1.266603946685791,0.2581520080566406,22.81999969482422,38.84999847412109,-45.9900016784668
13.67699817946119,-0.1237079948186874,-0.8693720102310181,0.3098799884319305,36.6974983215332,45.63999938964844,-54.11000061035156
13.697230425288796,0.0070759998634457,-0.5846239924430847,0.2330199927091598,30.957500457763672,59.63999938964844,-58.834999084472656
13.717462671116401,-0.0331839993596077,-0.5658360123634338,0.1449359953403473,1.277500033378601,54.28499984741211,-58.275001525878906
13.737694916944006,-0.0461159981787204,-0.8488759994506836,0.2459519952535629,-33.599998474121094,39.7599983215332,-49.962501525878906
13.757927162771612,-0.0834480002522468,-1.136307954788208,0.3291559815406799,-54.932498931884766,42.10499954223633,-37.32749938964844
13.778159408599217,-0.1276119947433471,-1.168515920639038,0.3928399980068207,-41.66749954223633,38.09749984741211,-35.42000198364258
13.798391654426823,-0.0900359973311424,-1.0277279615402222,0.4333440065383911,-17.53499984741211,24.65749931335449,-46.28749847412109
13.818623900254428,-0.006343999877572,-0.8664439916610718,0.358924001455307,-10.920000076293944,15.75,-54.67000198364258
13.838856146082033,0.0707599967718124,-0.7629879713058472,0.2715719938278198,-23.11750030517578,15.68000030517578,-57.57500076293945
13.859088391909639,0.1166319996118545,-0.6734399795532227,0.2274079918861389,-45.622501373291016,14.262499809265137,-51.90499877929688
13.879320637737244,0.1185839995741844,-0.74127197265625,0.1966639906167984,-72.15250396728516,17.954999923706055,-38.53499984741211
13.89955288356485,0.1215119957923889,-0.8420439958572388,0.2283839881420135,-78.73249816894531,25.09499931335449,-28.315000534057617
13.919785129392455,0.1222440004348754,-0.9171959757804872,0.2408279925584793,-70.45500183105469,29.96000099182129,-23.1875
13.94001737522006,0.1273680031299591,-0.9128040075302124,0.2427799999713897,-53.30500030517578,29.295000076293945,-21.4375
13.960249621047666,0.1190719977021217,-0.9067040085792542,0.2222839891910553,-40.494998931884766,25.987499237060547,-17.237499237060547
13.980481866875271,0.1100439950823783,-0.879863977432251,0.2152079939842224,-31.184999465942383,22.924999237060547,-10.850000381469728
14.000714112702877,0.1337119936943054,-0.848143994808197,0.2286279946565628,-25.042499542236328,19.162500381469727,-2.240000009536743
14.020946358530482,0.1439599990844726,-0.8847439885139465,0.2603479921817779,-18.375,17.237499237060547,14.1225004196167
14.041178604358088,0.1061399951577186,-0.9757559895515442,0.3445279896259308,-14.50749969482422,17.604999542236328,18.270000457763672
14.061410850185693,0.075883999466896,-1.0801880359649658,0.4013800024986267,-8.71500015258789,16.11750030517578,16.274999618530273
14.081643096013298,0.0805199965834617,-1.1650999784469604,0.4123599827289581,-1.5750000476837158,14.350000381469728,7.787499904632568
14.101875341840904,0.0849120020866394,-1.113371968269348,0.4262679815292358,5.740000247955322,14.297499656677246,-5.827499866485596
14.12210758766851,0.109555996954441,-0.9991799592971802,0.4287079870700836,8.085000038146973,11.6899995803833,-14.524999618530272
14.142339833496115,0.1542080044746399,-0.9928359985351562,0.3542879819869995,4.672500133514404,7.927500247955322,-12.18000030517578
14.16257207932372,0.1363959908485412,-1.123863935470581,0.2432679980993271,10.482500076293944,4.007500171661377,-3.430000066757202
14.182804325151325,0.0497759990394115,-1.3415119647979736,0.2386319935321808,18.51499938964844,-1.8899999856948853,-1.5049999952316284
14.20303657097893,-0.0226919986307621,-1.5845359563827517,0.1886119991540908,25.30500030517578,-14.350000381469728,-15.38249969482422
14.223268816806536,0.0012199999764561,-1.4966959953308103,0.1085800006985664,50.13750076293945,-25.725000381469727,-39.532501220703125
14.243501062634142,0.0075639998540282,-0.9450119733810424,-0.0448959991335868,76.63249969482422,-14.1225004196167,-45.692501068115234
14.263733308461747,0.0163480006158351,-0.7315120100975037,0.05197199806571,68.7925033569336,7.822500228881836,-26.26749992370605
14.283965554289352,0.1805599927902221,-0.7676239609718323,0.2422920018434524,54.86249923706055,11.182499885559082,-2.2225000858306885
14.304197800116958,0.2174039930105209,-0.8835240006446838,0.2715719938278198,44.22249984741211,40.11000061035156,15.994999885559082
14.324430045944563,0.0534359999001026,-1.1736400127410889,0.3584359884262085,17.622499465942383,59.90250015258789,17.920000076293945
14.344662291772169,-0.0736880004405975,-1.3434640169143677,0.3281799852848053,33.35499954223633,53.67250061035156,-0.1749999970197677
14.364894537599774,-0.1446920037269592,-1.1233760118484497,0.293531984090805,72.02999877929688,54.407501220703125,-9.869999885559082
14.38512678342738,-0.1110199987888336,-0.9018239974975586,0.2723039984703064,68.56500244140625,47.21500015258789,-5.127500057220459
14.405359029254985,-0.0326960012316703,-0.6612399816513062,0.2500999867916107,50.102500915527344,44.275001525878906,2.327500104904175
14.42559127508259,0.0121999997645616,-0.550707995891571,0.2461960017681121,25.95249938964844,46.21749877929688,8.067500114440918
14.445823520910196,-0.0546559989452362,-0.6531879901885986,0.281819999217987,-3.132499933242798,50.17250061035156,13.387499809265137
14.466055766737801,-0.1115079969167709,-0.8032479882240295,0.264739990234375,-20.71999931335449,52.53499984741211,13.63249969482422
14.486288012565407,-0.1234639957547187,-0.8500959873199463,0.3023159801959991,-17.639999389648438,54.915000915527344,12.28499984741211
14.506520258393012,-0.1212679967284202,-0.8779119849205017,0.322079986333847,-12.390000343322754,53.72499847412109,11.515000343322754
14.526752504220617,-0.1093119978904724,-0.835211992263794,0.3308639824390411,-7.840000152587891,47.56499862670898,7.822500228881836
14.546984750048223,-0.0941839963197708,-0.7681120038032532,0.3452599942684173,-6.615000247955322,43.01499938964844,2.3975000381469727
14.567216995875828,-0.0932080000638961,-0.7493239641189575,0.3808839917182922,-13.5625,42.157501220703125,-1.715000033378601
14.587449241703434,-0.0956479981541633,-0.7302919626235962,0.4267559945583343,-23.799999237060547,42.31499862670898,-5.215000152587891
14.607681487531039,-0.1173639968037605,-0.7922679781913757,0.4472520053386688,-33.26750183105469,43.17250061035156,-8.592499732971191
14.627913733358644,-0.0983319953083992,-0.944767951965332,0.4221200048923492,-29.417499542236328,49.36750030517578,-17.71000099182129
14.64814597918625,-0.0897919982671737,-0.966484010219574,0.4089439809322357,-18.690000534057617,46.602500915527344,-21.40250015258789
14.668378225013855,-0.0893040001392364,-1.0452959537506104,0.4208999872207641,-13.107500076293944,44.92250061035156,-20.28249931335449
14.68861047084146,-0.0805199965834617,-1.0775039196014404,0.4345639944076538,-7.787499904632568,46.65499877929688,-11.619999885559082
14.708842716669066,-0.1251720041036605,-0.995519995689392,0.4138239920139313,0.875,50.17250061035156,-4.795000076293945
14.729074962496671,-0.1995919942855835,-0.9298839569091796,0.4143120050430298,8.557499885559082,54.005001068115234,-5.635000228881836
14.749307208324277,-0.248879998922348,-1.0352920293807983,0.4182159900665283,8.102499961853027,56.80500030517578,-12.390000343322754
14.769539454151882,-0.1988599896430969,-1.3014960289001465,0.4082120060920715,8.487500190734863,59.53499984741211,-15.697500228881836
14.789771699979488,-0.1734839975833892,-1.4686359167099,0.3967439830303192,22.3125,58.817501068115234,-15.102499961853027
14.810003945807093,-0.1600639969110489,-1.2829519510269165,0.379175990819931,48.22999954223633,49.29750061035156,-20.877500534057617
14.830236191634699,-0.0944279953837394,-0.9882000088691713,0.3247639834880829,53.35750198364258,39.67250061035156,-29.575000762939453
14.850468437462304,-0.0178119987249374,-0.8061760067939758,0.2071560025215149,37.72999954223633,34.05500030517578,-37.25749969482422
14.87070068328991,0.1000399962067604,-0.7998319864273071,0.1400559991598129,18.77750015258789,36.907501220703125,-41.1775016784668
14.890932929117515,0.1424959897994995,-0.868395984172821,0.0956479981541633,7.087500095367432,36.13750076293945,-38.77999877929688
14.91116517494512,0.0736880004405975,-0.9067040085792542,0.1371279954910278,0.1400000005960464,26.84499931335449,-30.799999237060547
14.931397420772726,-0.002195999957621,-0.9186599850654602,0.2100839912891388,-7.769999980926514,21.174999237060547,-27.3700008392334
14.951629666600331,-0.0117119997739791,-0.9503799676895142,0.2576639950275421,-16.502500534057617,16.905000686645508,-29.3125
14.971861912427936,0.0292799994349479,-0.9842959642410278,0.264739990234375,-19.46000099182129,15.38249969482422,-33.005001068115234
14.992094158255542,0.0883279964327812,-1.0003999471664429,0.2293599992990493,-14.140000343322754,12.109999656677246,-36.959999084472656
15.012326404083147,0.1466439962387085,-0.9616039991378784,0.205935999751091,-7.542500019073486,9.292500495910645,-36.977500915527344
15.032558649910753,0.1561599969863891,-0.8935279846191406,0.2108159959316253,-8.417500495910645,9.869999885559082,-31.0625
15.052790895738358,0.134443998336792,-0.8518039584159851,0.2276519984006881,-15.364999771118164,10.359999656677246,-23.520000457763672
15.073023141565963,0.1393239945173263,-0.8605879545211792,0.2308239936828613,-23.76499938964844,11.357500076293944,-18.74250030517578
15.093255387393569,0.1622599959373474,-0.8954799771308899,0.2154520004987716,-27.51000022888184,12.25,-17.727500915527344
15.113487633221174,0.1471319943666458,-0.925491988658905,0.2225279957056045,-26.40749931335449,13.177499771118164,-18.23500061035156
15.13371987904878,0.0875959992408752,-0.941107988357544,0.2457079887390136,-25.497499465942383,12.72249984741211,-16.729999542236328
15.153952124876385,0.0832040011882782,-0.9508680105209352,0.2559559941291809,-23.292499542236328,12.61750030517578,-15.050000190734863
15.17418437070399,0.0741759985685348,-0.9274439811706544,0.2718159854412079,-18.637500762939453,12.827500343322754,-12.65250015258789
15.194416616531596,0.0541680008172988,-0.9201239943504332,0.2808440029621124,-17.885000228881836,11.287500381469728,-10.202500343322754
15.214648862359201,0.0451399981975555,-0.9435479640960692,0.2949959933757782,-18.1299991607666,9.100000381469728,-9.432499885559082
15.234881108186807,0.0697840005159378,-0.9757559895515442,0.3057319819927215,-17.360000610351562,4.392499923706055,-7.612500190734863
15.255113354014412,0.0829599946737289,-0.958187997341156,0.3067080080509186,-12.18000030517578,-1.277500033378601,-5.880000114440918
15.275345599842018,0.0993079990148544,-0.9423279762268066,0.3140279948711395,-8.295000076293945,-4.882500171661377,-2.327500104904175
15.295577845669623,0.1024799942970275,-0.9445239901542664,0.3242760002613067,-3.7100000381469727,-5.372499942779541,2.5199999809265137
15.315810091497228,0.090279996395111,-0.9491599798202516,0.3296439945697784,2.345000028610229,-6.440000057220459,4.760000228881836
15.336042337324834,0.0871080011129379,-0.9372040033340454,0.3340359926223755,7.087500095367432,-9.572500228881836,4.742499828338623
15.35627458315244,0.0924759954214096,-0.9013359546661376,0.3586799800395965,11.357500076293944,-8.505000114440918,3.884999990463257
15.376506828980045,0.1024799942970275,-0.8786439895629883,0.3716119825839996,11.6899995803833,-7.507500171661377,4.199999809265137
15.39673907480765,0.1163880005478859,-0.8874279856681824,0.3803959786891937,11.077500343322754,-7.297500133514404,5.652500152587891
15.416971320635255,0.1454239934682846,-0.9079239964485168,0.3767359852790832,14.262499809265137,-4.8125,7.840000152587891
15.43720356646286,0.1908079981803894,-0.9008479714393616,0.326227992773056,20.33500099182129,-0.7350000143051147,11.024999618530272
15.457435812290466,0.1991039961576461,-0.9767319560050964,0.2342399954795837,21.1924991607666,0.332500010728836,15.907500267028809
15.477668058118072,0.167383998632431,-1.199504017829895,0.2435119897127151,16.782499313354492,3.325000047683716,17.46500015258789
15.497900303945677,0.0814960002899169,-1.451799988746643,0.2666919827461242,8.417500495910645,5.862500190734863,6.335000038146973
15.518132549773282,-0.0265959985554218,-1.4691239595413208,0.2266760021448135,19.967500686645508,1.9424999952316284,-12.880000114440918
15.538364795600888,-0.0380639992654323,-1.136307954788208,0.1786080002784729,40.459999084472656,-1.1200000047683716,-16.922500610351562
15.558597041428493,-0.0290360003709793,-0.8957239985466003,0.2479040026664734,35.57749938964844,-2.012500047683716,0.0350000001490116
15.578829287256099,-0.0170799996703863,-0.785923957824707,0.2759639918804168,24.56999969482422,-5.862500190734863,21.38500022888184
15.599061533083704,-0.0468479990959167,-0.7695760130882263,0.2386319935321808,14.017499923706056,1.5924999713897705,34.369998931884766
15.61929377891131,-0.0895479992032051,-0.900115966796875,0.2435119897127151,-4.287499904632568,12.880000114440918,35.13999938964844
15.639526024738915,-0.1073599979281425,-1.101415991783142,0.3272039890289306,-19.512500762939453,16.940000534057617,29.102500915527344
15.65975827056652,-0.0385520011186599,-1.2041399478912354,0.3301320075988769,-13.457500457763672,11.515000343322754,25.09499931335449
15.679990516394126,-0.0158599987626075,-1.0945839881896973,0.2576639950275421,5.442500114440918,11.515000343322754,24.552499771118164
15.700222762221731,-0.0065879998728632,-0.9232959747314452,0.205935999751091,16.572500228881836,11.34000015258789,24.7450008392334
15.720455008049337,-0.0051239999011158,-0.7685999870300293,0.1969079971313476,13.300000190734863,10.5,24.184999465942383
15.740687253876942,-0.057583998888731,-0.7322440147399902,0.2164279967546463,-3.7799999713897705,13.05500030517578,23.537500381469727
15.760919499704547,-0.1100439950823783,-0.7849479913711548,0.2493679970502853,-20.15999984741211,14.892499923706056,21.2450008392334
15.781151745532153,-0.1305399984121322,-0.8474119901657104,0.2664479911327362,-27.125,17.53499984741211,19.11000061035156
15.801383991359758,-0.1341999918222427,-0.903775990009308,0.2735239863395691,-27.07250022888184,18.602500915527344,17.639999389648438
15.821616237187364,-0.1442039906978607,-0.9306159615516664,0.2798680067062378,-24.02750015258789,16.274999618530273,15.71500015258789
15.841848483014969,-0.1410319954156875,-0.9835639595985411,0.260591983795166,-22.3125,9.012499809265137,10.272500038146973
15.862080728842574,-0.1198039948940277,-1.0152839422225952,0.2622999846935272,-20.71999931335449,7.367499828338623,8.399999618530273
15.88231297467018,-0.1205359995365142,-1.0140639543533323,0.264983981847763,-16.764999389648438,7.105000019073486,6.965000152587891
15.902545220497785,-0.1315159946680069,-1.024799942970276,0.269131988286972,-11.84749984741211,6.737500190734863,5.827499866485596
15.92277746632539,-0.1237079948186874,-1.020651936531067,0.2779159843921661,-6.037499904632568,7.28000020980835,5.355000019073486
15.943009712152996,-0.130295991897583,-0.9630680084228516,0.2669360041618347,-1.1024999618530271,8.452500343322754,3.920000076293945
15.963241957980602,-0.1256600022315979,-0.8854759931564331,0.2652280032634735,-4.042500019073486,14.297499656677246,3.0799999237060547
15.983474203808207,-0.1444479972124099,-0.9247599840164183,0.2535159885883331,-10.010000228881836,14.175000190734863,4.567500114440918
16.00370644963581,-0.1590880006551742,-0.96697199344635,0.2493679970502853,-11.6899995803833,11.515000343322754,4.707499980926514
16.023938695463414,-0.1600639969110489,-0.9833199977874756,0.2410719990730285,-10.045000076293944,8.085000038146973,3.5
16.044170941291018,-0.1405439972877502,-0.9925919771194458,0.2381439954042434,-6.755000114440918,5.320000171661377,1.8550000190734863
16.06440318711862,-0.1266359984874725,-0.9764879941940308,0.2293599992990493,-2.2925000190734863,4.199999809265137,0.2800000011920929
16.084635432946225,-0.1176079958677291,-0.9659959673881532,0.2252119928598404,0.0700000002980232,4.882500171661377,-0.4375
16.10486767877383,-0.1117519959807396,-0.9594079852104188,0.2198439985513687,0.5074999928474426,5.914999961853027,-0.2975000143051147
16.125099924601432,-0.1063839942216873,-0.9513559937477112,0.2137439996004104,-0.4724999964237213,5.949999809265137,-0.262499988079071
16.145332170429036,-0.0936959981918335,-0.9713639616966248,0.2171600013971328,-2.940000057220459,6.772500038146973,0.6474999785423279
16.16556441625664,-0.085887998342514,-0.9935680031776428,0.2174039930105209,-4.619999885559082,7.525000095367432,1.5575000047683716
16.185796662084243,-0.0912560001015663,-0.990884006023407,0.2139879912137985,-3.762500047683716,7.595000267028809,0.7524999976158142
16.206028907911847,-0.0912560001015663,-0.9772199988365172,0.2166720032691955,-1.3125,7.909999847412109,-0.8924999833106995
16.22626115373945,-0.0944279953837394,-0.958675980567932,0.2230159938335418,0.4200000166893005,9.327500343322754,-1.347499966621399
16.246493399567054,-0.109555996954441,-0.944279968738556,0.2210640013217926,-0.3675000071525574,10.675000190734863,-0.8400000333786011
16.266725645394658,-0.1363959908485412,-0.935983955860138,0.2125239968299865,-2.0824999809265137,10.97249984741211,-0.7175000309944153
16.28695789122226,-0.1498159915208816,-0.9501360058784484,0.2208199948072433,-3.3949999809265137,11.795000076293944,-0.8575000166893005
16.307190137049865,-0.1542080044746399,-0.9845399856567384,0.2296039909124374,-4.147500038146973,12.72249984741211,0.1400000005960464
16.32742238287747,-0.1571359932422638,-1.0135760307312012,0.2391199916601181,-2.047499895095825,13.440000534057615,1.2424999475479126
16.347654628705072,-0.1690919995307922,-1.0155279636383057,0.2378999888896942,2.625,13.702500343322754,1.8725000619888303
16.367886874532676,-0.175924003124237,-0.9957639575004578,0.2459519952535629,6.457499980926514,12.460000038146973,2.240000009536743
16.38811912036028,-0.1681160032749176,-0.9686799645423888,0.2561999857425689,8.225000381469727,10.954999923706056,1.8899999856948853
16.408351366187883,-0.1617719978094101,-0.944767951965332,0.2579079866409302,8.329999923706055,12.407500267028809,1.1549999713897705
16.428583612015487,-0.1405439972877502,-0.9171959757804872,0.2557120025157928,5.670000076293945,17.010000228881836,-1.2424999475479126
16.44881585784309,-0.143227994441986,-0.920367956161499,0.257420003414154,3.954999923706055,20.387500762939453,-2.555000066757202
16.469048103670694,-0.1241960003972053,-0.9225639700889589,0.2681559920310974,2.9749999046325684,23.48500061035156,-4.934999942779541
16.489280349498298,-0.1032119989395141,-0.9313479661941528,0.2752319872379303,2.414999961853028,28.36750030517578,-8.470000267028809
16.5095125953259,-0.0922319963574409,-0.9533079862594604,0.2801119983196258,1.0325000286102295,32.8650016784668,-11.88249969482422
16.529744841153505,-0.095160000026226,-0.9735599756240844,0.2871879935264587,0.4025000035762787,37.93999862670898,-14.0
16.54997708698111,-0.1239520013332367,-0.9838079810142516,0.3015840053558349,0.9449999928474426,42.3849983215332,-15.085000038146973
16.570209332808712,-0.1583559960126876,-0.9764879941940308,0.2959719896316528,1.4700000286102295,44.64250183105469,-15.907500267028809
16.590441578636316,-0.1910519897937774,-0.961359977722168,0.2959719896316528,1.5575000047683716,45.84999847412109,-16.520000457763672
16.61067382446392,-0.2156959921121597,-0.946720004081726,0.2852360010147095,1.190000057220459,46.8650016784668,-17.219999313354492
16.630906070291523,-0.2296039909124374,-0.9362279772758484,0.2703520059585571,0.3499999940395355,47.6349983215332,-17.815000534057617
16.651138316119127,-0.2088640034198761,-0.9276880025863647,0.2598600089550018,-1.4874999523162842,48.98250198364258,-17.6924991607666
16.67137056194673,-0.1915400028228759,-0.924027979373932,0.2464399933815002,-3.674999952316284,52.16749954223633,-17.184999465942383
16.691602807774334,-0.1664080023765564,-0.9306159615516664,0.2259439975023269,-4.96999979019165,55.86000061035156,-17.53499984741211
16.711835053601938,-0.1566479951143264,-0.9403759837150574,0.2000799924135208,-4.760000228881836,59.9375,-19.232500076293945
16.73206729942954,-0.1659199893474578,-0.9406200051307678,0.1893439888954162,-3.202500104904175,63.38500213623047,-22.295000076293945
16.752299545257145,-0.1947119981050491,-0.935252010822296,0.2005679905414581,0.0525000020861625,66.72750091552734,-25.67250061035156
16.77253179108475,-0.1932480037212371,-0.9235399961471558,0.2325319945812225,3.640000104904175,71.75,-28.57749938964844
16.792764036912352,-0.2274079918861389,-0.9264679551124572,0.2174039930105209,4.96999979019165,77.66500091552734,-30.170000076293945
16.812996282739956,-0.2505879998207092,-0.9103639721870422,0.1834879964590072,7.105000019073486,79.57250213623047,-33.845001220703125
16.83322852856756,-0.2376559972763061,-0.8903560042381287,0.1837320029735565,10.09749984741211,82.44249725341797,-40.21500015258789
16.853460774395163,-0.2408279925584793,-0.8803519606590271,0.147376000881195,13.824999809265137,89.47750091552734,-47.07500076293945
16.873693020222767,-0.2335079908370971,-0.8708359599113464,0.1063839942216873,17.97249984741211,96.72250366210938,-53.532501220703125
16.89392526605037,-0.2166720032691955,-0.8222799897193909,0.0680759996175766,19.21500015258789,104.79000091552734,-58.90499877929688
16.914157511877974,-0.1978839933872223,-0.8308199644088745,0.0163480006158351,9.765000343322754,114.16999816894533,-61.21500015258789
16.934389757705578,-0.1583559960126876,-0.8679080009460449,-0.0180559996515512,-2.2225000858306885,120.69750213623048,-61.54750061035156
16.95462200353318,-0.0470919981598854,-1.093851923942566,-0.0219599995762109,-18.042499542236328,129.58749389648438,-56.06999969482422
16.974854249360785,0.1036999970674514,-1.271239995956421,-0.0034159999340772,-24.88500022888184,137.72500610351562,-42.122501373291016
16.99508649518839,0.1554279923439026,-1.2688000202178955,0.0285479985177516,-10.3774995803833,143.3074951171875,-39.4275016784668
17.015318741015992,0.196175992488861,-1.189743995666504,0.0832040011882782,10.272500038146973,138.0050048828125,-49.50749969482422
17.035550986843596,0.0690519958734512,-1.0435879230499268,0.2093520015478134,0.0175000000745058,131.4250030517578,-49.61249923706055
17.0557832326712,-0.0439199991524219,-1.1153240203857422,0.2357039898633957,-14.244999885559082,129.90249633789062,-37.345001220703125
17.076015478498803,-0.0536799989640712,-1.2739239931106567,0.2803559899330139,-7.892499923706055,131.8625030517578,-28.174999237060547
17.096247724326407,0.0751519948244094,-1.2751439809799194,0.3452599942684173,19.127500534057617,134.62750244140625,-33.6875
17.11647997015401,0.1610399931669235,-1.1267919540405271,0.3435519933700561,35.227500915527344,139.08999633789062,-43.81999969482422
17.136712215981614,0.1202920004725456,-1.0372439622879028,0.2884079813957214,26.565000534057617,134.20750427246094,-51.64250183105469
17.156944461809218,0.0883279964327812,-0.9879559874534608,0.2503440082073211,15.855000495910645,125.37000274658205,-59.220001220703125
17.17717670763682,0.1256600022315979,-0.8454599976539612,0.206179991364479,13.335000038146973,120.50499725341795,-59.13249969482422
17.197408953464425,0.1503039896488189,-0.7239480018615723,0.1537199914455413,5.284999847412109,120.03250122070312,-50.032501220703125
17.21764119929203,0.1581119894981384,-0.7000359892845154,0.1093119978904724,-7.699999809265137,128.71249389648438,-37.32749938964844
17.237873445119632,0.1332239955663681,-0.7634760141372681,0.1129719987511634,-17.90250015258789,141.0500030517578,-26.354999542236328
17.258105690947236,0.0692960023880004,-0.8813279867172241,0.1454239934682846,-21.01749992370605,147.6824951171875,-19.950000762939453
17.27833793677484,0.0370879992842674,-0.9803919792175292,0.1737279891967773,-17.674999237060547,144.6024932861328,-17.674999237060547
17.298570182602443,0.0380639992654323,-1.0374879837036133,0.1893439888954162,-12.827500343322754,136.65750122070312,-18.795000076293945
17.318802428430047,0.0495319999754428,-1.0728679895401,0.1568920016288757,-9.677499771118164,129.16749572753906,-20.52750015258789
17.33903467425765,0.0631959959864616,-1.0696959495544434,0.1437159925699234,-4.934999942779541,127.81999969482422,-20.07250022888184
17.359266920085254,0.061243999749422,-1.0438319444656372,0.1324919909238815,0.0350000001490116,129.77999877929688,-16.887500762939453
17.379499165912858,0.0351359993219375,-1.0055240392684937,0.1007720008492469,2.5374999046325684,135.27499389648438,-12.897500038146973
17.39973141174046,0.0195199996232986,-0.9579439759254456,0.0834480002522468,-1.277500033378601,134.9425048828125,-10.850000381469728
17.419963657568065,0.0363559983670711,-0.9750239849090576,0.0753960013389587,-11.357500076293944,131.8975067138672,-9.975000381469728
17.44019590339567,0.0200079996138811,-1.0223599672317505,0.0905239954590797,-15.907500267028809,131.19749450683594,-9.7475004196167
17.460428149223272,-0.0121999997645616,-1.0255320072174072,0.1420079916715622,-11.112500190734863,127.88999938964844,-10.989999771118164
17.480660395050876,-0.0346480011940002,-0.9974719882011414,0.1520119905471801,-3.622499942779541,120.08499908447266,-12.827500343322754
17.50089264087848,-0.0353799983859062,-0.9594079852104188,0.1024799942970275,2.9574999809265137,113.81999969482422,-13.52750015258789
17.521124886706083,-0.052216000854969,-0.9496479630470276,0.0663679987192154,1.7675000429153442,110.72250366210938,-10.447500228881836
17.541357132533687,-0.041967999190092,-0.9611159563064576,0.0631959959864616,-5.40749979019165,108.8499984741211,-5.442500114440918
17.56158937836129,-0.0544119998812675,-0.977463960647583,0.0768599957227706,-11.672499656677246,106.24250030517578,0.0175000000745058
17.581821624188894,-0.0653920024633407,-0.9928359985351562,0.065880000591278,-12.949999809265137,100.11750030517578,4.322500228881836
17.602053870016498,-0.0690519958734512,-0.9886879920959472,0.0588039979338645,-9.800000190734863,91.3324966430664,5.96750020980835
17.6222861158441,-0.0741759985685348,-0.9508680105209352,0.0448959991335868,-3.1675000190734863,82.51249694824219,6.510000228881836
17.642518361671705,-0.0392839983105659,-0.9154880046844482,0.0290360003709793,-2.6600000858306885,71.10250091552734,11.00749969482422
17.66275060749931,-0.0290360003709793,-0.9633119702339172,0.0097599998116493,-3.2725000381469727,66.9375,13.510000228881836
17.682982853326912,-0.0524599999189376,-0.9906399846076964,-0.0251320004463195,3.150000095367432,61.79249954223633,14.40250015258789
17.703215099154516,-0.1381039917469024,-0.9977160096168518,0.0180559996515512,11.375,53.07749938964844,15.207500457763672
17.72344734498212,-0.3096359968185425,-1.079699993133545,0.1371279954910278,10.43000030517578,44.1875,13.982500076293944
17.743679590809723,-0.3276920020580292,-1.1385040283203125,0.2037400007247924,6.440000057220459,31.412500381469727,2.8350000381469727
17.763911836637327,-0.2073999941349029,-1.1328920125961304,0.1739719957113266,10.255000114440918,26.26749992370605,-11.077500343322754
17.78414408246493,-0.1280999928712844,-1.0565199851989746,0.1778759956359863,17.97249984741211,29.24250030517578,-18.84749984741211
17.804376328292534,-0.1215119957923889,-0.9791719913482666,0.2776719927787781,21.612499237060547,33.442501068115234,-16.59000015258789
17.824608574120138,-0.1681160032749176,-0.9196360111236572,0.4104079902172088,20.15999984741211,39.900001525878906,-10.010000228881836
17.84484081994774,-0.2195999920368194,-0.9325679540634156,0.4879999756813049,10.97249984741211,48.02000045776367,-6.264999866485596
17.865073065775345,-0.2278959900140762,-1.0169919729232788,0.4343200027942657,0.9800000190734864,59.185001373291016,-7.332499980926514
17.88530531160295,-0.2259439975023269,-1.097756028175354,0.354775995016098,0.7350000143051147,70.5425033569336,-10.9375
17.905537557430552,-0.1800719946622848,-1.1043440103530884,0.3711239993572235,13.755000114440918,77.15750122070312,-15.837499618530272
17.925769803258156,-0.1339560002088546,-1.0301679372787476,0.4123599827289581,30.957500457763672,82.72250366210938,-18.23500061035156
17.94600204908576,-0.140299990773201,-0.9625799655914308,0.4138239920139313,38.4474983215332,89.38999938964844,-17.43000030517578
17.966234294913363,-0.1451800018548965,-0.9276880025863647,0.367464005947113,35.90999984741211,96.52999877929688,-18.042499542236328
17.986466540740967,-0.1427399963140487,-0.9103639721870422,0.3337920010089874,31.20249938964844,101.37750244140624,-18.40999984741211
18.00669878656857,-0.1695799976587295,-0.9147560000419616,0.3247639834880829,28.315000534057617,103.23249816894533,-15.994999885559082
18.026931032396174,-0.2181359976530075,-0.9145119786262512,0.3191519975662231,29.03249931335449,103.0749969482422,-12.704999923706056
18.047163278223778,-0.2413159906864166,-0.9120720028877258,0.3157359957695007,32.287498474121094,101.43000030517578,-10.657500267028809
18.06739552405138,-0.1803160011768341,-0.8491199612617493,0.358924001455307,40.459999084472656,99.8550033569336,-12.022500038146973
18.087627769878985,-0.1122400015592575,-0.7856799960136414,0.3545320034027099,44.834999084472656,101.8499984741211,-14.962499618530272
18.10786001570659,-0.0773480013012886,-0.7981239557266235,0.2884079813957214,41.42250061035156,97.42250061035156,-19.0049991607666
18.128092261534192,-0.0548999980092048,-0.831063985824585,0.2654719948768616,35.80500030517578,86.01249694824219,-24.0625
18.148324507361796,-0.095160000026226,-0.8835240006446838,0.2520520091056824,29.434999465942383,73.77999877929688,-30.170000076293945
18.1685567531894,-0.2020319998264312,-0.8803519606590271,0.2500999867916107,25.479999542236328,62.07250213623047,-36.522499084472656
18.188788999017003,-0.2784039974212646,-0.8842560052871704,0.264983981847763,20.3174991607666,53.182498931884766,-41.05500030517578
18.209021244844607,-0.2156959921121597,-0.8847439885139465,0.273279994726181,22.5049991607666,48.05500030517578,-52.23749923706055
18.22925349067221,-0.0631959959864616,-0.9425719976425172,0.240339994430542,28.2450008392334,42.17499923706055,-65.99250030517578
18.249485736499814,-0.1200480014085769,-0.9103639721870422,0.1610399931669235,31.79750061035156,29.71500015258789,-56.45500183105469
18.269717982327418,-0.2884079813957214,-0.8764479756355286,0.2230159938335418,6.335000038146973,12.407500267028809,-27.42250061035156
18.28995022815502,-0.3337920010089874,-0.913047969341278,0.4184599816799164,-18.34000015258789,9.204999923706056,0.612500011920929
18.310182473982625,-0.1790959984064102,-0.852292001247406,0.5719360113143921,-18.82999992370605,22.75,9.292500495910645
18.33041471981023,0.0490439981222152,-0.9513559937477112,0.5636399984359741,-17.989999771118164,42.45500183105469,0.4724999964237213
