Time (seconds),acc_x,acc_y,acc_z,gyro_x,gyro_y,gyro_z
0.02034147724290951,0.0029279999434947,-0.9994239807128906,-0.0414799973368644,0.4550000131130218,0.7175000309944153,-0.1924999952316284
0.04068295448581902,0.0012199999764561,-0.9969840049743652,-0.0414799973368644,0.4025000035762787,0.4900000095367431,-0.1050000041723251
0.061024431728728526,0.0024399999529123,-0.9979599714279176,-0.042943999171257,0.3675000071525574,-0.1400000005960464,0.0350000001490116
0.08136590897163803,0.0024399999529123,-0.9989359974861144,-0.0431879982352256,0.1749999970197677,-0.1225000023841857,0.0350000001490116
0.10170738621454754,0.0034159999340772,-0.9994239807128906,-0.0439199991524219,0.0874999985098838,-0.0525000020861625,0.0175000000745058
0.12204886345745705,0.0039039999246597,-0.9984479546546936,-0.041967999190092,-0.1574999988079071,0.2800000011920929,0.0874999985098838
0.14239034070036655,0.0019519999623298,-0.998691976070404,-0.0427000001072883,-0.0700000002980232,0.2450000047683715,0.1574999988079071
0.16273181794327607,0.0009759999811649,-0.9994239807128906,-0.041967999190092,-0.0874999985098838,0.262499988079071,0.1924999952316284
0.1830732951861856,-0.0012199999764561,-0.9999119639396667,-0.041967999190092,-0.1574999988079071,0.1050000041723251,0.2100000083446502
0.20341477242909511,0.0002439999952912,-0.9999119639396667,-0.0424560010433197,-0.2100000083446502,-0.0350000001490116,0.1924999952316284
0.22375624967200464,0.0024399999529123,-0.9969840049743652,-0.0422119982540607,-0.1225000023841857,-0.0700000002980232,0.1574999988079071
0.24409772691491416,0.0014639999717473,-0.9969840049743652,-0.0417240001261234,-0.262499988079071,-0.1050000041723251,0.1924999952316284
0.2644392041578237,-0.0007319999858736,-0.9994239807128906,-0.0448959991335868,-0.4900000095367431,-0.2275000065565109,0.2975000143051147
0.2847806814007332,-0.0017079999670386,-1.001863956451416,-0.0468479990959167,-0.3849999904632568,-0.2275000065565109,0.2450000047683715
0.3051221586436427,-0.0012199999764561,-0.9967399835586548,-0.0434319972991943,-0.0700000002980232,-0.1574999988079071,0.1225000023841857
0.32546363588655225,0.0043919999152421,-0.9967399835586548,-0.042943999171257,-0.0700000002980232,0.0175000000745058,0.0350000001490116
0.34580511312946177,0.0060999998822808,-0.995519995689392,-0.0400159992277622,-0.3499999940395355,0.262499988079071,0.1400000005960464
0.3661465903723713,0.0024399999529123,-0.9984479546546936,-0.0405040010809898,-0.612500011920929,0.1924999952316284,0.3149999976158142
0.3864880676152808,0.0009759999811649,-0.9996680021286012,-0.0451399981975555,-0.7350000143051147,0.1574999988079071,0.3675000071525574
0.40682954485819034,0.0024399999529123,-0.9996680021286012,-0.0458719991147518,-0.6299999952316284,0.1050000041723251,0.3675000071525574
0.42717102210109986,0.0014639999717473,-0.9999119639396667,-0.0468479990959167,-0.699999988079071,0.0874999985098838,0.3849999904632568
0.4475124993440094,0.0004879999905824,-1.0001559257507324,-0.0470919981598854,-0.6474999785423279,0.0874999985098838,0.3149999976158142
0.4678539765869189,0.0007319999858736,-0.9960079789161682,-0.0446520000696182,-0.5950000286102295,0.0874999985098838,0.262499988079071
0.48819545382982843,0.0019519999623298,-0.9974719882011414,-0.0446520000696182,-0.8050000071525574,0.0350000001490116,0.262499988079071
0.5085369310727379,0.0004879999905824,-0.9991799592971802,-0.0468479990959167,-1.0674999952316284,0.0874999985098838,0.332500010728836
0.5288784083156474,-0.0009759999811649,-1.0008879899978638,-0.0509959980845451,-0.9100000262260436,-0.0175000000745058,0.2275000065565109
0.5492198855585568,-0.0012199999764561,-1.0028399229049685,-0.052947998046875,-0.8400000333786011,-0.0350000001490116,0.1924999952316284
0.5695613628014663,0.0004879999905824,-0.998691976070404,-0.0512399971485137,-0.7524999976158142,0.1050000041723251,0.1050000041723251
0.5899028400443758,-0.0012199999764561,-0.9999119639396667,-0.0527039989829063,-0.8050000071525574,0.2275000065565109,0.1050000041723251
0.6102443172872852,-0.0039039999246597,-0.9979599714279176,-0.0527039989829063,-0.8050000071525574,0.3675000071525574,0.1050000041723251
0.6305857945301947,-0.003171999938786,-0.998203992843628,-0.0536799989640712,-0.6825000047683716,0.4375,0.0525000020861625
0.6509272717731042,-0.0041479999199509,-0.9989359974861144,-0.0551439970731735,-0.7350000143051147,0.6299999952316284,0.0700000002980232
0.6712687490160136,-0.0039039999246597,-0.995519995689392,-0.0556319989264011,-0.6825000047683716,0.7175000309944153,0.0525000020861625
0.6916102262589231,-0.0039039999246597,-0.9979599714279176,-0.0553879998624324,-0.8575000166893005,0.699999988079071,0.1574999988079071
0.7119517035018326,-0.006343999877572,-0.9977160096168518,-0.0568519979715347,-0.8924999833106995,0.6474999785423279,0.2450000047683715
0.732293180744742,-0.0070759998634457,-0.9977160096168518,-0.0578279979526996,-0.9100000262260436,0.6299999952316284,0.2800000011920929
0.7526346579876515,-0.0051239999011158,-0.9977160096168518,-0.0588039979338645,-0.9449999928474426,0.6474999785423279,0.332500010728836
0.772976135230561,-0.0036599999293684,-0.9989359974861144,-0.0583159998059272,-1.0149999856948853,0.7699999809265137,0.3149999976158142
0.7933176124734704,-0.0046359999105334,-1.0003999471664429,-0.0602679997682571,-1.1024999618530271,0.8224999904632568,0.2975000143051147
0.8136590897163799,-0.0051239999011158,-0.9994239807128906,-0.0600240007042884,-0.962499976158142,0.8224999904632568,0.2450000047683715
0.8340005669592894,-0.0068319998681545,-0.9994239807128906,-0.0605119988322258,-0.8924999833106995,0.8400000333786011,0.1924999952316284
0.8543420442021988,-0.0051239999011158,-0.9989359974861144,-0.0602679997682571,-0.8050000071525574,0.7699999809265137,0.1400000005960464
0.8746835214451083,-0.0046359999105334,-0.9972279667854308,-0.0597799979150295,-0.8050000071525574,0.7175000309944153,0.1225000023841857
0.8950249986880178,-0.0036599999293684,-0.9977160096168518,-0.0588039979338645,-0.9449999928474426,0.7699999809265137,0.1225000023841857
0.9153664759309272,-0.0034159999340772,-0.9984479546546936,-0.0607559978961944,-1.0149999856948853,0.7350000143051147,0.1749999970197677
0.9357079531738367,-0.0046359999105334,-0.9979599714279176,-0.0595359988510608,-0.8224999904632568,0.7524999976158142,0.1749999970197677
0.9560494304167462,-0.0048799999058246,-0.9974719882011414,-0.0585599988698959,-0.8924999833106995,0.699999988079071,0.2100000083446502
0.9763909076596556,-0.0043919999152421,-0.9999119639396667,-0.0588039979338645,-0.9975000023841858,0.5600000023841858,0.2450000047683715
0.9967323849025651,-0.0053679998964071,-0.9996680021286012,-0.0595359988510608,-0.875,0.5600000023841858,0.1924999952316284
1.0170738621454747,-0.0043919999152421,-1.0001559257507324,-0.061243999749422,-0.7524999976158142,0.4550000131130218,0.1574999988079071
1.0374153393883843,-0.003171999938786,-0.9984479546546936,-0.0607559978961944,-0.4375,0.4900000095367431,0.0525000020861625
1.0577568166312938,-0.0039039999246597,-0.9979599714279176,-0.0595359988510608,-0.4025000035762787,0.4025000035762787,0.0525000020861625
1.0780982938742034,-0.0046359999105334,-0.9994239807128906,-0.0607559978961944,-0.3849999904632568,0.4200000166893005,0.0525000020861625
1.098439771117113,-0.0034159999340772,-0.998203992843628,-0.0602679997682571,-0.2800000011920929,0.3149999976158142,0.0525000020861625
1.1187812483600226,-0.0041479999199509,-0.9989359974861144,-0.0614879988133907,-0.1225000023841857,0.1225000023841857,0.0175000000745058
1.1391227256029322,-0.0029279999434947,-0.9991799592971802,-0.061243999749422,-0.0525000020861625,0.0350000001490116,-0.0525000020861625
1.1594642028458417,-0.0017079999670386,-0.9989359974861144,-0.0614879988133907,-0.0700000002980232,0.1050000041723251,-0.0874999985098838
1.1798056800887513,-0.0026839999482035,-0.9994239807128906,-0.0636840015649795,-0.0525000020861625,0.1574999988079071,-0.1400000005960464
1.2001471573316609,-0.0026839999482035,-0.9979599714279176,-0.0629519969224929,0.1050000041723251,0.1400000005960464,-0.1924999952316284
1.2204886345745705,-0.0026839999482035,-0.9979599714279176,-0.0619760006666183,0.2275000065565109,0.1225000023841857,-0.2275000065565109
1.24083011181748,-0.0036599999293684,-0.998691976070404,-0.0634399950504303,0.1924999952316284,0.1050000041723251,-0.1400000005960464
1.2611715890603896,-0.0026839999482035,-0.9977160096168518,-0.0631959959864616,0.2975000143051147,0.1225000023841857,-0.1225000023841857
1.2815130663032992,-0.0019519999623298,-0.9967399835586548,-0.062219999730587,0.2800000011920929,0.0874999985098838,-0.1050000041723251
1.3018545435462088,-0.0036599999293684,-0.9984479546546936,-0.0649039968848228,0.1749999970197677,0.0700000002980232,-0.0525000020861625
1.3221960207891184,-0.0053679998964071,-0.9979599714279176,-0.0636840015649795,0.5425000190734863,-0.0350000001490116,-0.1924999952316284
1.342537498032028,-0.0017079999670386,-0.9967399835586548,-0.0646599978208541,0.5425000190734863,0.0700000002980232,-0.2800000011920929
1.3628789752749375,-0.0017079999670386,-0.9991799592971802,-0.0629519969224929,0.2450000047683715,0.262499988079071,-0.2100000083446502
1.383220452517847,-0.0053679998964071,-0.998203992843628,-0.062219999730587,0.3849999904632568,0.3849999904632568,-0.2275000065565109
1.4035619297607567,-0.0056119998916983,-0.9999119639396667,-0.0627079978585243,0.2800000011920929,0.332500010728836,-0.1574999988079071
1.4239034070036662,-0.0034159999340772,-0.9996680021286012,-0.0624639987945556,0.2450000047683715,0.3149999976158142,-0.0874999985098838
1.4442448842465758,-0.0043919999152421,-1.0008879899978638,-0.0649039968848228,0.2275000065565109,0.1924999952316284,-0.0700000002980232
1.4645863614894854,-0.0041479999199509,-0.998203992843628,-0.0651479959487915,0.2975000143051147,0.1749999970197677,-0.0874999985098838
1.484927838732395,-0.0051239999011158,-0.9969840049743652,-0.0631959959864616,0.4550000131130218,0.1749999970197677,-0.2450000047683715
1.5052693159753046,-0.0043919999152421,-0.9969840049743652,-0.0617319978773593,0.4550000131130218,0.2450000047683715,-0.2450000047683715
1.5256107932182141,-0.0039039999246597,-0.9972279667854308,-0.0624639987945556,0.262499988079071,0.2100000083446502,-0.1050000041723251
1.5459522704611237,-0.0058559998869895,-1.000643968582153,-0.0646599978208541,0.2800000011920929,0.1400000005960464,-0.0874999985098838
1.5662937477040333,-0.0048799999058246,-0.9979599714279176,-0.0629519969224929,0.612500011920929,0.1574999988079071,-0.1924999952316284
1.5866352249469429,-0.0051239999011158,-0.9994239807128906,-0.0634399950504303,0.5600000023841858,0.2100000083446502,-0.1574999988079071
1.6069767021898524,-0.0053679998964071,-0.9994239807128906,-0.0634399950504303,0.5249999761581421,0.1749999970197677,-0.2275000065565109
1.627318179432762,-0.0068319998681545,-0.9991799592971802,-0.0624639987945556,0.5249999761581421,0.2800000011920929,-0.2975000143051147
1.6476596566756716,-0.0053679998964071,-0.9972279667854308,-0.0609999969601631,0.5774999856948853,0.2800000011920929,-0.2975000143051147
1.6680011339185812,-0.0046359999105334,-0.9967399835586548,-0.0614879988133907,0.5074999928474426,0.3149999976158142,-0.3149999976158142
1.6883426111614908,-0.0046359999105334,-0.998691976070404,-0.061243999749422,0.4724999964237213,0.262499988079071,-0.262499988079071
1.7086840884044003,-0.0056119998916983,-1.0001559257507324,-0.0634399950504303,0.5600000023841858,0.2800000011920929,-0.2450000047683715
1.72902556564731,-0.0051239999011158,-0.998691976070404,-0.0617319978773593,0.7350000143051147,0.3149999976158142,-0.2975000143051147
1.7493670428902195,-0.0051239999011158,-0.9989359974861144,-0.0624639987945556,0.7524999976158142,0.2975000143051147,-0.332500010728836
1.769708520133129,-0.006343999877572,-1.0003999471664429,-0.062219999730587,0.8050000071525574,0.2975000143051147,-0.3499999940395355
1.7900499973760386,-0.0065879998728632,-0.9977160096168518,-0.0614879988133907,0.9800000190734864,0.2800000011920929,-0.4200000166893005
1.8103914746189482,-0.0051239999011158,-0.998691976070404,-0.061243999749422,0.9975000023841858,0.2275000065565109,-0.4375
1.8307329518618578,-0.0041479999199509,-0.998203992843628,-0.0602679997682571,1.0850000381469729,0.1225000023841857,-0.4724999964237213
1.8510744291047674,-0.0046359999105334,-0.9974719882011414,-0.0597799979150295,1.0149999856948853,0.1749999970197677,-0.4200000166893005
1.871415906347677,-0.0046359999105334,-0.9989359974861144,-0.0602679997682571,1.0325000286102295,0.1749999970197677,-0.3675000071525574
1.8917573835905865,-0.0043919999152421,-0.9989359974861144,-0.0600240007042884,1.2074999809265137,0.1574999988079071,-0.4550000131130218
1.9120988608334961,-0.0034159999340772,-0.9972279667854308,-0.0585599988698959,1.277500033378601,0.2100000083446502,-0.4724999964237213
1.9324403380764057,-0.0046359999105334,-1.0003999471664429,-0.0590479969978332,1.2424999475479126,0.1574999988079071,-0.4724999964237213
1.9527818153193153,-0.003171999938786,-0.9991799592971802,-0.0592919997870922,1.3125,0.1924999952316284,-0.5249999761581421
1.9731232925622249,-0.0048799999058246,-0.9974719882011414,-0.0585599988698959,1.347499966621399,0.2450000047683715,-0.612500011920929
1.9934647698051344,-0.0051239999011158,-0.9999119639396667,-0.0580720007419586,1.277500033378601,0.1924999952316284,-0.6474999785423279
2.013806247048044,-0.0039039999246597,-0.9994239807128906,-0.0590479969978332,1.347499966621399,0.2450000047683715,-0.6650000214576721
2.0341477242909534,-0.0048799999058246,-0.9989359974861144,-0.0588039979338645,1.4874999523162842,0.2275000065565109,-0.7175000309944153
2.0544892015338627,-0.0039039999246597,-0.9977160096168518,-0.057583998888731,1.5049999952316284,0.1400000005960464,-0.6650000214576721
2.074830678776772,-0.0024399999529123,-0.9999119639396667,-0.0563639998435974,1.4175000190734863,0.0700000002980232,-0.5950000286102295
2.0951721560196814,-0.0034159999340772,-0.998203992843628,-0.0558759979903698,1.4874999523162842,0.1225000023841857,-0.612500011920929
2.115513633262591,-0.0026839999482035,-0.9969840049743652,-0.0546559989452362,1.4874999523162842,0.1225000023841857,-0.5600000023841858
2.1358551105055,-0.0041479999199509,-0.9979599714279176,-0.0544119998812675,1.4524999856948853,0.1050000041723251,-0.4900000095367431
2.1561965877484095,-0.0034159999340772,-0.9984479546546936,-0.0536799989640712,1.4524999856948853,-0.0700000002980232,-0.5074999928474426
2.176538064991319,-0.0046359999105334,-0.998691976070404,-0.0541680008172988,1.4175000190734863,-0.1749999970197677,-0.4900000095367431
2.196879542234228,-0.0053679998964071,-0.9994239807128906,-0.05197199806571,1.4700000286102295,-0.3149999976158142,-0.5074999928474426
2.2172210194771376,-0.0041479999199509,-0.998691976070404,-0.052947998046875,1.4874999523162842,-0.4550000131130218,-0.5249999761581421
2.237562496720047,-0.0017079999670386,-0.9977160096168518,-0.0534359999001026,1.347499966621399,-0.5249999761581421,-0.4550000131130218
2.2579039739629563,-0.0012199999764561,-0.9977160096168518,-0.0514839999377727,1.225000023841858,-0.612500011920929,-0.4025000035762787
2.2782454512058656,-0.0002439999952912,-0.9994239807128906,-0.0507519990205764,1.190000057220459,-0.6650000214576721,-0.3849999904632568
2.298586928448775,-0.002195999957621,-0.9996680021286012,-0.05197199806571,1.0850000381469729,-0.6474999785423279,-0.3149999976158142
2.3189284056916843,-0.0007319999858736,-0.9991799592971802,-0.0534359999001026,1.1024999618530271,-0.612500011920929,-0.3499999940395355
2.3392698829345937,0.0019519999623298,-0.9994239807128906,-0.0507519990205764,1.1024999618530271,-0.4550000131130218,-0.3849999904632568
2.359611360177503,0.0002439999952912,-0.9999119639396667,-0.0507519990205764,1.0674999952316284,-0.4900000095367431,-0.3849999904632568
2.3799528374204124,-0.0029279999434947,-1.002351999282837,-0.0517279990017414,1.0850000381469729,-0.5249999761581421,-0.4025000035762787
2.4002943146633218,-0.0036599999293684,-0.9999119639396667,-0.0517279990017414,1.4175000190734863,-0.6650000214576721,-0.4900000095367431
2.420635791906231,-0.0007319999858736,-0.9962520003318788,-0.0470919981598854,1.5399999618530271,-0.6299999952316284,-0.5950000286102295
2.4409772691491405,0.0065879998728632,-0.9962520003318788,-0.0434319972991943,1.1200000047683716,-0.3149999976158142,-0.4900000095367431
2.46131874639205,0.0056119998916983,-0.9969840049743652,-0.0422119982540607,0.8575000166893005,-0.2100000083446502,-0.4200000166893005
2.481660223634959,0.0024399999529123,-0.9994239807128906,-0.0444080010056495,0.6474999785423279,-0.1574999988079071,-0.332500010728836
2.5020017008778686,0.0012199999764561,-1.0008879899978638,-0.0463600009679794,0.6825000047683716,-0.2450000047683715,-0.2800000011920929
2.522343178120778,0.0014639999717473,-1.001376032829285,-0.0483120009303092,0.8224999904632568,-0.2800000011920929,-0.2800000011920929
2.5426846553636873,0.0017079999670386,-1.0011320114135742,-0.0480679981410503,1.0499999523162842,-0.3675000071525574,-0.2975000143051147
2.5630261326065966,0.002195999957621,-0.9989359974861144,-0.0461159981787204,1.277500033378601,-0.4375,-0.4200000166893005
2.583367609849506,0.0039039999246597,-0.995519995689392,-0.0431879982352256,1.2949999570846558,-0.4375,-0.5074999928474426
2.6037090870924153,0.0043919999152421,-0.9964959621429444,-0.0407480001449584,0.875,-0.4375,-0.3849999904632568
2.6240505643353247,0.0029279999434947,-0.9999119639396667,-0.0439199991524219,0.6299999952316284,-0.5249999761581421,-0.2450000047683715
2.644392041578234,0.0026839999482035,-0.9994239807128906,-0.0439199991524219,0.8575000166893005,-0.5074999928474426,-0.2800000011920929
2.6647335188211434,0.0046359999105334,-0.9989359974861144,-0.0436760000884532,0.8924999833106995,-0.4200000166893005,-0.2800000011920929
2.6850749960640528,0.0046359999105334,-0.9991799592971802,-0.042943999171257,0.875,-0.3149999976158142,-0.2450000047683715
2.705416473306962,0.0043919999152421,-0.9991799592971802,-0.041967999190092,0.8400000333786011,-0.2275000065565109,-0.2800000011920929
2.7257579505498715,0.0034159999340772,-0.9991799592971802,-0.0417240001261234,0.8050000071525574,-0.1924999952316284,-0.2800000011920929
2.746099427792781,0.0039039999246597,-0.998691976070404,-0.0414799973368644,0.6474999785423279,-0.1574999988079071,-0.2100000083446502
2.76644090503569,0.0036599999293684,-1.0001559257507324,-0.041967999190092,0.6474999785423279,-0.1225000023841857,-0.2100000083446502
2.7867823822785995,0.0046359999105334,-0.998691976070404,-0.0414799973368644,0.6825000047683716,-0.0175000000745058,-0.2450000047683715
2.807123859521509,0.0036599999293684,-0.9994239807128906,-0.0417240001261234,0.6825000047683716,-0.0175000000745058,-0.2800000011920929
2.8274653367644182,0.0036599999293684,-0.9979599714279176,-0.0407480001449584,0.8400000333786011,-0.0175000000745058,-0.3149999976158142
2.8478068140073276,0.0029279999434947,-0.998203992843628,-0.0400159992277622,0.7350000143051147,0.0350000001490116,-0.262499988079071
2.868148291250237,0.0029279999434947,-0.9984479546546936,-0.0402599982917308,0.6825000047683716,0.0700000002980232,-0.2450000047683715
2.8884897684931463,0.0034159999340772,-0.9972279667854308,-0.0400159992277622,0.5600000023841858,0.1400000005960464,-0.1749999970197677
2.9088312457360557,0.0019519999623298,-1.0001559257507324,-0.0409919992089271,0.4200000166893005,0.2100000083446502,-0.1225000023841857
2.929172722978965,0.0026839999482035,-0.9991799592971802,-0.0409919992089271,0.4550000131130218,0.2275000065565109,-0.1400000005960464
2.9495142002218744,0.0029279999434947,-1.0001559257507324,-0.0402599982917308,0.4375,0.2100000083446502,-0.1225000023841857
2.9698556774647837,0.0014639999717473,-0.9994239807128906,-0.0424560010433197,0.5074999928474426,0.2275000065565109,-0.1749999970197677
2.990197154707693,0.0004879999905824,-1.0001559257507324,-0.0431879982352256,0.5249999761581421,0.2100000083446502,-0.2275000065565109
3.0105386319506025,0.0004879999905824,-0.9991799592971802,-0.0414799973368644,0.5249999761581421,0.1924999952316284,-0.2100000083446502
3.030880109193512,-0.0002439999952912,-1.0003999471664429,-0.041967999190092,0.4375,0.0350000001490116,-0.1400000005960464
3.051221586436421,-0.0009759999811649,-0.998691976070404,-0.0412359982728958,0.3849999904632568,0.0175000000745058,-0.0700000002980232
3.0715630636793305,0.0007319999858736,-0.998691976070404,-0.042943999171257,0.4200000166893005,0.0700000002980232,-0.1050000041723251
3.09190454092224,0.0004879999905824,-0.9991799592971802,-0.041967999190092,0.5600000023841858,0.0874999985098838,-0.0874999985098838
3.1122460181651492,0.0004879999905824,-0.9994239807128906,-0.0414799973368644,0.4550000131130218,0.1400000005960464,-0.0700000002980232
3.1325874954080586,-0.0012199999764561,-0.9994239807128906,-0.0422119982540607,0.3849999904632568,0.1749999970197677,-0.1050000041723251
3.152928972650968,-0.002195999957621,-0.9996680021286012,-0.0417240001261234,0.4550000131130218,0.2450000047683715,-0.1749999970197677
3.1732704498938773,-0.0019519999623298,-0.9996680021286012,-0.0427000001072883,0.4375,0.2275000065565109,-0.1574999988079071
3.1936119271367867,-0.0014639999717473,-0.9984479546546936,-0.0409919992089271,0.5074999928474426,0.2100000083446502,-0.1574999988079071
3.213953404379696,-0.0014639999717473,-0.9977160096168518,-0.0417240001261234,0.4375,0.2450000047683715,-0.1050000041723251
3.2342948816226054,-0.0019519999623298,-0.9974719882011414,-0.0405040010809898,0.3849999904632568,0.2100000083446502,-0.0350000001490116
3.2546363588655147,-0.0019519999623298,-1.0001559257507324,-0.0417240001261234,0.2450000047683715,0.1924999952316284,0.0175000000745058
3.274977836108424,-0.0024399999529123,-1.000643968582153,-0.0441639982163906,0.2275000065565109,0.1574999988079071,0.0525000020861625
3.2953193133513334,-0.0012199999764561,-0.9996680021286012,-0.0424560010433197,0.3149999976158142,0.1400000005960464,-0.0350000001490116
3.315660790594243,-0.0002439999952912,-0.998691976070404,-0.0417240001261234,0.2975000143051147,0.262499988079071,-0.0525000020861625
3.336002267837152,-0.0017079999670386,-0.9994239807128906,-0.0424560010433197,0.1574999988079071,0.2975000143051147,-0.0525000020861625
3.3563437450800615,-0.0039039999246597,-0.998203992843628,-0.0431879982352256,0.4724999964237213,0.1574999988079071,-0.1225000023841857
3.376685222322971,0.0012199999764561,-0.9964959621429444,-0.0400159992277622,0.4375,0.2800000011920929,-0.1749999970197677
3.39702669956588,0.0026839999482035,-0.998691976070404,-0.0368440002202987,0.1749999970197677,0.3675000071525574,-0.1225000023841857
3.4173681768087896,0.0012199999764561,-0.9984479546546936,-0.0366000011563301,-0.0350000001490116,0.332500010728836,0.0175000000745058
3.437709654051699,-0.0007319999858736,-0.9994239807128906,-0.0387960001826286,-0.1050000041723251,0.2275000065565109,0.0700000002980232
3.4580511312946083,-0.002195999957621,-1.0025960206985474,-0.041967999190092,-0.0874999985098838,0.1924999952316284,0.0525000020861625
3.4783926085375176,-0.0009759999811649,-1.0008879899978638,-0.0407480001449584,0.1749999970197677,0.1400000005960464,-0.0350000001490116
3.498734085780427,0.0002439999952912,-0.9999119639396667,-0.0405040010809898,0.2100000083446502,0.0874999985098838,-0.0700000002980232
3.5190755630233364,-0.0007319999858736,-1.000643968582153,-0.0409919992089271,0.2450000047683715,-0.0525000020861625,-0.1400000005960464
3.5394170402662457,0.0002439999952912,-0.9984479546546936,-0.0380639992654323,0.332500010728836,-0.0700000002980232,-0.2100000083446502
3.559758517509155,0.0019519999623298,-0.9964959621429444,-0.0370879992842674,0.2450000047683715,-0.1924999952316284,-0.2100000083446502
3.5800999947520644,0.0019519999623298,-1.000643968582153,-0.0441639982163906,0.0700000002980232,-0.2275000065565109,-0.0525000020861625
3.6004414719949738,0.0019519999623298,-1.0011320114135742,-0.0441639982163906,0.2450000047683715,-0.0525000020861625,-0.0525000020861625
3.620782949237883,0.0012199999764561,-0.9991799592971802,-0.0405040010809898,0.0525000020861625,0.0525000020861625,-0.0874999985098838
3.6411244264807925,0.002195999957621,-0.9969840049743652,-0.0431879982352256,0.0350000001490116,0.2100000083446502,-0.0525000020861625
3.661465903723702,0.0017079999670386,-0.9996680021286012,-0.042943999171257,-0.1050000041723251,0.2100000083446502,-0.0350000001490116
3.681807380966611,0.0007319999858736,-0.9991799592971802,-0.0427000001072883,0.0700000002980232,0.2450000047683715,-0.1225000023841857
3.7021488582095206,0.0007319999858736,-0.9999119639396667,-0.0448959991335868,0.0700000002980232,0.2450000047683715,-0.1400000005960464
3.72249033545243,-0.0007319999858736,-0.9996680021286012,-0.042943999171257,0.0874999985098838,0.2275000065565109,-0.1924999952316284
3.7428318126953393,-0.0007319999858736,-0.9989359974861144,-0.0439199991524219,0.1050000041723251,0.1924999952316284,-0.1749999970197677
3.7631732899382486,0.0014639999717473,-0.9989359974861144,-0.0427000001072883,0.1924999952316284,0.1050000041723251,-0.1749999970197677
3.783514767181158,0.0007319999858736,-0.9977160096168518,-0.0431879982352256,0.1574999988079071,0.1225000023841857,-0.1749999970197677
3.8038562444240673,0.0014639999717473,-0.9967399835586548,-0.0434319972991943,0.1400000005960464,0.1924999952316284,-0.1749999970197677
3.8241977216669767,0.0009759999811649,-0.9989359974861144,-0.0436760000884532,0.1050000041723251,0.2800000011920929,-0.1225000023841857
3.844539198909886,0.0017079999670386,-0.998691976070404,-0.0444080010056495,-0.0350000001490116,0.3499999940395355,-0.1050000041723251
3.8648806761527954,0.0002439999952912,-0.9996680021286012,-0.0446520000696182,-0.1749999970197677,0.4200000166893005,-0.1050000041723251
3.8852221533957048,-0.0012199999764561,-1.000643968582153,-0.0458719991147518,-0.1749999970197677,0.4200000166893005,-0.0700000002980232
3.905563630638614,0.0004879999905824,-0.9996680021286012,-0.0446520000696182,-0.1050000041723251,0.4550000131130218,-0.0874999985098838
3.9259051078815235,0.0012199999764561,-0.9991799592971802,-0.0446520000696182,-0.1050000041723251,0.4724999964237213,-0.0874999985098838
3.946246585124433,0.0007319999858736,-0.9991799592971802,-0.0448959991335868,-0.1574999988079071,0.4900000095367431,-0.0525000020861625
3.966588062367342,-0.0002439999952912,-0.9994239807128906,-0.0453839972615242,-0.0700000002980232,0.4200000166893005,-0.0874999985098838
3.9869295396102515,-0.0004879999905824,-1.0001559257507324,-0.0456280000507831,-0.0700000002980232,0.3849999904632568,-0.1050000041723251
4.007271016853161,-0.0009759999811649,-0.9979599714279176,-0.0446520000696182,0.0350000001490116,0.3849999904632568,-0.1225000023841857
4.02761249409607,0.0007319999858736,-0.998203992843628,-0.0444080010056495,-0.0350000001490116,0.2450000047683715,-0.0350000001490116
4.04795397133898,0.0019519999623298,-0.998203992843628,-0.0436760000884532,-0.0874999985098838,0.262499988079071,-0.0350000001490116
4.068295448581889,0.0012199999764561,-0.9996680021286012,-0.0446520000696182,-0.1050000041723251,0.2100000083446502,-0.0525000020861625
4.088636925824798,0.0009759999811649,-0.998691976070404,-0.0451399981975555,0.0525000020861625,0.3499999940395355,-0.0525000020861625
4.108978403067708,0.0017079999670386,-0.9969840049743652,-0.0441639982163906,0.0350000001490116,0.262499988079071,-0.0700000002980232
4.129319880310617,-0.0017079999670386,-1.0016199350357056,-0.0483120009303092,-0.1924999952316284,0.2275000065565109,0.0350000001490116
4.149661357553526,-0.0034159999340772,-1.0001559257507324,-0.047335997223854,0.0700000002980232,0.1749999970197677,-0.0175000000745058
4.170002834796436,-0.0019519999623298,-0.9969840049743652,-0.0456280000507831,0.2450000047683715,0.2450000047683715,-0.1050000041723251
4.190344312039345,0.0024399999529123,-0.9991799592971802,-0.0446520000696182,0.1050000041723251,0.2800000011920929,-0.1400000005960464
4.2106857892822545,0.0012199999764561,-0.9974719882011414,-0.0451399981975555,0.0175000000745058,0.4025000035762787,-0.0874999985098838
4.231027266525164,-0.0007319999858736,-0.9994239807128906,-0.0444080010056495,-0.0874999985098838,0.3675000071525574,-0.0350000001490116
4.251368743768073,-0.0026839999482035,-1.0003999471664429,-0.0456280000507831,-0.1749999970197677,0.262499988079071,0.0175000000745058
4.2717102210109825,-0.0004879999905824,-0.9999119639396667,-0.0485559999942779,0.1749999970197677,0.0874999985098838,-0.0350000001490116
4.292051698253892,-0.0007319999858736,-0.9996680021286012,-0.0480679981410503,0.2800000011920929,0.0350000001490116,-0.0700000002980232
4.312393175496801,-0.0012199999764561,-0.9967399835586548,-0.0458719991147518,0.1050000041723251,-0.0175000000745058,-0.0700000002980232
4.332734652739711,-0.0024399999529123,-1.0011320114135742,-0.0487999990582466,-0.0874999985098838,-0.1050000041723251,0.0525000020861625
4.35307612998262,-0.0007319999858736,-0.9984479546546936,-0.0478239990770816,0.2450000047683715,-0.1050000041723251,-0.0175000000745058
4.373417607225529,-0.0009759999811649,-0.9994239807128906,-0.047335997223854,0.0525000020861625,0.0525000020861625,0.0350000001490116
4.393759084468439,-0.0017079999670386,-0.9989359974861144,-0.047580000013113,-0.0874999985098838,0.2100000083446502,0.0175000000745058
4.414100561711348,-0.0012199999764561,-0.9991799592971802,-0.0480679981410503,-0.0700000002980232,0.2975000143051147,0.0175000000745058
4.434442038954257,-0.002195999957621,-0.998691976070404,-0.0480679981410503,-0.1050000041723251,0.5074999928474426,0.0700000002980232
4.454783516197167,-0.0029279999434947,-0.9991799592971802,-0.046604000031948,-0.0525000020861625,0.4025000035762787,0.0700000002980232
4.475124993440076,-0.003171999938786,-0.998691976070404,-0.0458719991147518,-0.0700000002980232,0.3849999904632568,0.0525000020861625
4.495466470682985,-0.0012199999764561,-0.9989359974861144,-0.0461159981787204,-0.0175000000745058,0.3675000071525574,0.0350000001490116
4.515807947925895,-0.0014639999717473,-0.9972279667854308,-0.0456280000507831,0.0350000001490116,0.3149999976158142,0.0175000000745058
4.536149425168804,-0.0017079999670386,-0.9989359974861144,-0.0461159981787204,-0.1400000005960464,0.2975000143051147,0.0700000002980232
4.5564909024117135,-0.0019519999623298,-0.9989359974861144,-0.0468479990959167,-0.1924999952316284,0.262499988079071,0.0175000000745058
4.576832379654623,-0.0009759999811649,-0.9991799592971802,-0.0463600009679794,-0.2450000047683715,0.262499988079071,0.0700000002980232
4.597173856897532,-0.0024399999529123,-0.9989359974861144,-0.0470919981598854,-0.2450000047683715,0.2100000083446502,0.1050000041723251
4.617515334140442,-0.002195999957621,-0.998691976070404,-0.0468479990959167,-0.2100000083446502,0.1924999952316284,0.0874999985098838
4.637856811383351,-0.0029279999434947,-0.9999119639396667,-0.0470919981598854,-0.332500010728836,0.1400000005960464,0.0700000002980232
4.65819828862626,-0.0026839999482035,-0.9999119639396667,-0.0478239990770816,-0.262499988079071,0.0700000002980232,0.0700000002980232
4.67853976586917,-0.002195999957621,-0.998691976070404,-0.047335997223854,-0.3675000071525574,0.0700000002980232,0.0700000002980232
4.698881243112079,-0.0024399999529123,-0.9996680021286012,-0.0487999990582466,-0.4025000035762787,0.0700000002980232,0.0350000001490116
4.719222720354988,-0.002195999957621,-0.9984479546546936,-0.0497759990394115,-0.3149999976158142,-0.0175000000745058,0.0175000000745058
4.739564197597898,-0.0014639999717473,-0.9979599714279176,-0.0500199981033802,-0.262499988079071,0.0525000020861625,0.0175000000745058
4.759905674840807,-0.0014639999717473,-0.998691976070404,-0.0505079999566078,-0.2800000011920929,0.1050000041723251,0.0350000001490116
4.780247152083716,-0.0019519999623298,-0.9991799592971802,-0.0502640008926391,-0.332500010728836,0.2275000065565109,0.0700000002980232
4.800588629326626,-0.0014639999717473,-0.9979599714279176,-0.0505079999566078,-0.3499999940395355,0.2800000011920929,0.0700000002980232
4.820930106569535,-0.0019519999623298,-0.9984479546546936,-0.0497759990394115,-0.4025000035762787,0.3499999940395355,0.0700000002980232
4.8412715838124445,-0.002195999957621,-0.9979599714279176,-0.0505079999566078,-0.332500010728836,0.4200000166893005,0.1050000041723251
4.861613061055354,-0.002195999957621,-0.9977160096168518,-0.0507519990205764,-0.3675000071525574,0.4375,0.1050000041723251
4.881954538298263,-0.0039039999246597,-0.998691976070404,-0.0517279990017414,-0.4550000131130218,0.4375,0.1574999988079071
4.902296015541173,-0.0043919999152421,-0.9994239807128906,-0.0524599999189376,-0.4550000131130218,0.3849999904632568,0.1574999988079071
4.922637492784082,-0.002195999957621,-0.9974719882011414,-0.0512399971485137,-0.5425000190734863,0.332500010728836,0.1400000005960464
4.942978970026991,-0.006343999877572,-1.0030839443206787,-0.0558759979903698,-0.7524999976158142,0.3849999904632568,0.1924999952316284
4.963320447269901,-0.0065879998728632,-0.9999119639396667,-0.0551439970731735,-0.2975000143051147,0.2975000143051147,0.1050000041723251
4.98366192451281,-0.0051239999011158,-0.9972279667854308,-0.0514839999377727,-0.0874999985098838,0.3849999904632568,0.0175000000745058
5.004003401755719,-0.0024399999529123,-0.9984479546546936,-0.052216000854969,-0.4724999964237213,0.699999988079071,0.1400000005960464
5.024344878998629,-0.0043919999152421,-0.998691976070404,-0.0527039989829063,-0.5074999928474426,0.7175000309944153,0.1574999988079071
5.044686356241538,-0.0058559998869895,-0.9999119639396667,-0.0536799989640712,-0.6474999785423279,0.6299999952316284,0.2100000083446502
5.065027833484447,-0.0065879998728632,-1.000643968582153,-0.0553879998624324,-0.5600000023841858,0.4900000095367431,0.1924999952316284
5.085369310727357,-0.0056119998916983,-1.0008879899978638,-0.0563639998435974,-0.3499999940395355,0.332500010728836,0.1749999970197677
5.105710787970266,-0.006343999877572,-0.9996680021286012,-0.0578279979526996,-0.1400000005960464,0.2275000065565109,0.1050000041723251
5.1260522652131755,-0.0070759998634457,-0.9964959621429444,-0.0539239980280399,-0.0350000001490116,0.1749999970197677,0.0700000002980232
5.146393742456085,-0.0051239999011158,-0.9964959621429444,-0.0548999980092048,-0.262499988079071,0.1574999988079071,0.1225000023841857
5.166735219698994,-0.0075639998540282,-0.9999119639396667,-0.0578279979526996,-0.4900000095367431,0.0350000001490116,0.1924999952316284
5.1870766969419035,-0.0085399998351931,-0.9977160096168518,-0.057583998888731,-0.3499999940395355,-0.0350000001490116,0.1749999970197677
5.207418174184813,-0.0073199998587369,-0.9989359974861144,-0.0583159998059272,-0.4025000035762787,-0.1574999988079071,0.2275000065565109
5.227759651427722,-0.0068319998681545,-0.9991799592971802,-0.0580720007419586,-0.4375,-0.1749999970197677,0.1924999952316284
5.248101128670632,-0.0068319998681545,-0.9964959621429444,-0.0568519979715347,-0.4025000035762787,-0.1050000041723251,0.1225000023841857
5.268442605913541,-0.0065879998728632,-0.9977160096168518,-0.0570959970355033,-0.6825000047683716,0.0175000000745058,0.1749999970197677
5.28878408315645,-0.0060999998822808,-0.9974719882011414,-0.057583998888731,-0.7699999809265137,0.0350000001490116,0.2275000065565109
5.30912556039936,-0.0039039999246597,-0.9964959621429444,-0.0570959970355033,-0.699999988079071,0.1225000023841857,0.2275000065565109
5.329467037642269,-0.0034159999340772,-0.9979599714279176,-0.057583998888731,-0.8400000333786011,0.262499988079071,0.2975000143051147
5.349808514885178,-0.0058559998869895,-0.9994239807128906,-0.0588039979338645,-0.875,0.3499999940395355,0.3149999976158142
5.370149992128088,-0.0065879998728632,-0.9996680021286012,-0.057583998888731,-0.8224999904632568,0.4375,0.2800000011920929
5.390491469370997,-0.0058559998869895,-0.9974719882011414,-0.0568519979715347,-0.7350000143051147,0.4550000131130218,0.2275000065565109
5.4108329466139065,-0.0070759998634457,-0.9984479546546936,-0.0590479969978332,-0.9100000262260436,0.5074999928474426,0.2450000047683715
5.431174423856816,-0.0068319998681545,-0.998203992843628,-0.057583998888731,-0.8400000333786011,0.4200000166893005,0.2450000047683715
5.451515901099725,-0.006343999877572,-0.9977160096168518,-0.0588039979338645,-0.875,0.3675000071525574,0.2800000011920929
5.4718573783426345,-0.0058559998869895,-0.998203992843628,-0.0583159998059272,-0.9275000095367432,0.3675000071525574,0.2975000143051147
5.492198855585544,-0.0068319998681545,-0.9979599714279176,-0.0588039979338645,-1.1549999713897705,0.4375,0.2800000011920929
5.512540332828453,-0.0060999998822808,-0.998203992843628,-0.0588039979338645,-1.1725000143051147,0.4375,0.262499988079071
5.532881810071363,-0.0070759998634457,-0.998203992843628,-0.0585599988698959,-1.1375000476837158,0.3499999940395355,0.2800000011920929
5.553223287314272,-0.0078079998493194,-0.9989359974861144,-0.0585599988698959,-1.1200000047683716,0.3149999976158142,0.2275000065565109
5.573564764557181,-0.0070759998634457,-0.9977160096168518,-0.0595359988510608,-1.1200000047683716,0.2975000143051147,0.2450000047683715
5.593906241800091,-0.0068319998681545,-0.9999119639396667,-0.0600240007042884,-1.190000057220459,0.2975000143051147,0.2975000143051147
5.614247719043,-0.006343999877572,-0.9984479546546936,-0.0578279979526996,-1.1549999713897705,0.2450000047683715,0.2450000047683715
5.634589196285909,-0.0060999998822808,-0.998203992843628,-0.0580720007419586,-1.1725000143051147,0.2450000047683715,0.2450000047683715
5.654930673528819,-0.0051239999011158,-0.9994239807128906,-0.0590479969978332,-1.2424999475479126,0.3149999976158142,0.262499988079071
5.675272150771728,-0.0048799999058246,-0.9989359974861144,-0.0617319978773593,-1.0850000381469729,0.3499999940395355,0.2800000011920929
5.695613628014637,-0.006343999877572,-0.998203992843628,-0.0614879988133907,-0.962499976158142,0.3149999976158142,0.2800000011920929
5.715955105257547,-0.0097599998116493,-0.9999119639396667,-0.0614879988133907,-0.9275000095367432,0.3675000071525574,0.262499988079071
5.736296582500456,-0.0080519998446106,-1.0008879899978638,-0.0627079978585243,-0.7350000143051147,0.332500010728836,0.262499988079071
5.7566380597433655,-0.0065879998728632,-0.9974719882011414,-0.0614879988133907,-0.4724999964237213,0.4200000166893005,0.2800000011920929
5.776979536986275,-0.006343999877572,-0.9972279667854308,-0.0636840015649795,-0.4375,0.4724999964237213,0.262499988079071
5.797321014229184,-0.0065879998728632,-0.9977160096168518,-0.0634399950504303,-0.4550000131130218,0.5774999856948853,0.262499988079071
5.817662491472094,-0.0070759998634457,-0.9967399835586548,-0.0639280006289482,-0.3499999940395355,0.6825000047683716,0.262499988079071
5.838003968715003,-0.0080519998446106,-0.995519995689392,-0.0634399950504303,-0.4550000131130218,0.7350000143051147,0.332500010728836
5.858345445957912,-0.0080519998446106,-0.9964959621429444,-0.0663679987192154,-0.5600000023841858,0.7699999809265137,0.3149999976158142
5.878686923200822,-0.0080519998446106,-0.9947879910469056,-0.0651479959487915,-0.5950000286102295,0.8575000166893005,0.262499988079071
5.899028400443731,-0.0087839998304843,-0.9964959621429444,-0.06734399497509,-0.7875000238418579,0.9100000262260436,0.1924999952316284
5.91936987768664,-0.0100039998069405,-0.9960079789161682,-0.0680759996175766,-0.8224999904632568,0.875,0.1225000023841857
5.93971135492955,-0.0109799997881054,-0.9938119649887084,-0.0678320005536079,-0.7875000238418579,0.7699999809265137,0.1924999952316284
5.960052832172459,-0.0109799997881054,-0.9950319528579712,-0.06734399497509,-0.9449999928474426,0.5950000286102295,0.2450000047683715
5.980394309415368,-0.0109799997881054,-0.9967399835586548,-0.0688079968094825,-1.190000057220459,0.4724999964237213,0.2975000143051147
6.000735786658278,-0.010491999797523,-1.0001559257507324,-0.0722239986062049,-1.347499966621399,0.2975000143051147,0.4025000035762787
6.021077263901187,-0.0087839998304843,-0.9989359974861144,-0.0732000023126602,-1.3125,0.4200000166893005,0.4025000035762787
6.0414187411440965,-0.0056119998916983,-0.9962520003318788,-0.0712479948997497,-1.1375000476837158,0.5774999856948853,0.3675000071525574
6.061760218387006,-0.0085399998351931,-0.9991799592971802,-0.0741759985685348,-1.3300000429153442,0.7875000238418579,0.4200000166893005
6.082101695629915,-0.0119559997692704,-1.0043039321899414,-0.0768599957227706,-1.347499966621399,0.9275000095367432,0.3849999904632568
6.102443172872825,-0.0109799997881054,-0.9923479557037354,-0.0697840005159378,-0.6825000047683716,1.3650000095367432,0.0175000000745058
6.122784650115734,-0.0078079998493194,-0.9928359985351562,-0.0649039968848228,-1.0850000381469729,1.5750000476837158,0.1225000023841857
6.143126127358643,-0.010491999797523,-0.9977160096168518,-0.0688079968094825,-1.5399999618530271,1.662500023841858,0.3499999940395355
6.163467604601553,-0.013663999736309,-0.9957639575004578,-0.0702719986438751,-1.347499966621399,1.5575000047683716,0.3675000071525574
6.183809081844462,-0.0148839997127652,-0.9960079789161682,-0.0724679976701736,-1.1375000476837158,1.4350000619888306,0.3675000071525574
6.204150559087371,-0.0146399997174739,-0.9967399835586548,-0.0736880004405975,-1.0149999856948853,1.3125,0.4200000166893005
6.224492036330281,-0.013663999736309,-0.998203992843628,-0.0763719975948333,-1.0149999856948853,1.2599999904632568,0.4025000035762787
6.24483351357319,-0.0119559997692704,-0.998691976070404,-0.0785679966211319,-1.0674999952316284,1.2599999904632568,0.332500010728836
6.265174990816099,-0.0121999997645616,-0.9974719882011414,-0.0768599957227706,-0.9975000023841858,1.2599999904632568,0.2100000083446502
6.285516468059009,-0.0119559997692704,-0.9945439696311952,-0.075883999466896,-1.0674999952316284,1.347499966621399,0.1400000005960464
6.305857945301918,-0.0148839997127652,-0.9972279667854308,-0.0788119956851005,-1.2424999475479126,1.277500033378601,0.1924999952316284
6.3261994225448275,-0.0168359987437725,-0.9969840049743652,-0.0795440003275871,-1.0149999856948853,1.1024999618530271,0.1749999970197677
6.346540899787737,-0.0156159996986389,-0.9947879910469056,-0.0805199965834617,-0.8224999904632568,1.0149999856948853,0.2450000047683715
6.366882377030646,-0.0143959997221827,-0.9957639575004578,-0.0817399993538856,-0.9100000262260436,1.0674999952316284,0.2975000143051147
6.3872238542735555,-0.0141519997268915,-0.9957639575004578,-0.0814960002899169,-1.0850000381469729,1.0674999952316284,0.3675000071525574
6.407565331516465,-0.0158599987626075,-0.9962520003318788,-0.0829599946737289,-1.1375000476837158,0.962499976158142,0.3849999904632568
6.427906808759374,-0.0170799996703863,-0.995519995689392,-0.0824719965457916,-1.1725000143051147,0.7699999809265137,0.3675000071525574
6.448248286002284,-0.0175679996609687,-0.9952759742736816,-0.0839359983801841,-1.0850000381469729,0.7350000143051147,0.4025000035762787
6.468589763245193,-0.0163480006158351,-0.9974719882011414,-0.0839359983801841,-1.0674999952316284,0.7175000309944153,0.4200000166893005
6.488931240488102,-0.0158599987626075,-0.998203992843628,-0.0841799974441528,-0.875,0.5249999761581421,0.3499999940395355
6.509272717731012,-0.0163480006158351,-0.9972279667854308,-0.0832040011882782,-0.699999988079071,0.4900000095367431,0.2800000011920929
6.529614194973921,-0.0161039996892213,-0.9960079789161682,-0.0829599946737289,-0.6474999785423279,0.5074999928474426,0.262499988079071
6.54995567221683,-0.0163480006158351,-0.9957639575004578,-0.0836919993162155,-0.6474999785423279,0.4550000131130218,0.1924999952316284
6.57029714945974,-0.0158599987626075,-0.9957639575004578,-0.0827159956097602,-0.5950000286102295,0.4550000131130218,0.1924999952316284
6.590638626702649,-0.0158599987626075,-0.9960079789161682,-0.0849120020866394,-0.6299999952316284,0.4724999964237213,0.1924999952316284
6.6109801039455585,-0.0153719997033476,-0.9957639575004578,-0.085156001150608,-0.7699999809265137,0.5074999928474426,0.2275000065565109
6.631321581188468,-0.0156159996986389,-0.9962520003318788,-0.0844239965081214,-0.7699999809265137,0.4200000166893005,0.262499988079071
6.651663058431377,-0.0168359987437725,-0.995519995689392,-0.085887998342514,-0.8400000333786011,0.4550000131130218,0.2450000047683715
6.6720045356742865,-0.0163480006158351,-0.9947879910469056,-0.0856439992785453,-0.8924999833106995,0.3849999904632568,0.2450000047683715
6.692346012917196,-0.0165919996798038,-0.9957639575004578,-0.0856439992785453,-0.9975000023841858,0.4200000166893005,0.2450000047683715
6.712687490160105,-0.0161039996892213,-0.9945439696311952,-0.0871080011129379,-0.9800000190734864,0.2800000011920929,0.2450000047683715
6.733028967403015,-0.0170799996703863,-0.9962520003318788,-0.0883279964327812,-1.0325000286102295,0.1924999952316284,0.262499988079071
6.753370444645924,-0.0173240005970001,-0.9957639575004578,-0.0880839973688125,-0.9975000023841858,0.1050000041723251,0.2100000083446502
6.773711921888833,-0.0158599987626075,-0.9957639575004578,-0.0878399983048439,-0.9800000190734864,0.0874999985098838,0.262499988079071
6.794053399131743,-0.0141519997268915,-0.995519995689392,-0.0888160020112991,-0.962499976158142,0.0874999985098838,0.2800000011920929
6.814394876374652,-0.0153719997033476,-0.9950319528579712,-0.0893040001392364,-0.9100000262260436,0.0874999985098838,0.2800000011920929
6.834736353617561,-0.0156159996986389,-0.9964959621429444,-0.0895479992032051,-0.9100000262260436,0.1400000005960464,0.2800000011920929
6.855077830860471,-0.0141519997268915,-0.9974719882011414,-0.0895479992032051,-0.9800000190734864,0.2275000065565109,0.262499988079071
6.87541930810338,-0.0143959997221827,-0.9957639575004578,-0.0890600010752677,-0.9100000262260436,0.262499988079071,0.262499988079071
6.8957607853462894,-0.0151279997080564,-0.9945439696311952,-0.0893040001392364,-0.9275000095367432,0.332500010728836,0.2800000011920929
6.916102262589199,-0.0143959997221827,-0.9943000078201294,-0.0900359973311424,-0.9449999928474426,0.3849999904632568,0.2450000047683715
6.936443739832108,-0.0151279997080564,-0.995519995689392,-0.0895479992032051,-1.0149999856948853,0.4724999964237213,0.2100000083446502
6.9567852170750175,-0.0156159996986389,-0.9947879910469056,-0.0900359973311424,-0.962499976158142,0.5074999928474426,0.2100000083446502
6.977126694317927,-0.0163480006158351,-0.995519995689392,-0.0900359973311424,-0.9449999928474426,0.4200000166893005,0.2275000065565109
6.997468171560836,-0.0175679996609687,-0.995519995689392,-0.0907679945230484,-0.9100000262260436,0.332500010728836,0.1924999952316284
7.017809648803746,-0.0163480006158351,-0.9947879910469056,-0.0893040001392364,-0.9449999928474426,0.3149999976158142,0.2275000065565109
7.038151126046655,-0.0153719997033476,-0.9938119649887084,-0.0890600010752677,-1.0850000381469729,0.2975000143051147,0.2275000065565109
7.058492603289564,-0.0141519997268915,-0.9943000078201294,-0.0912560001015663,-1.2074999809265137,0.3499999940395355,0.262499988079071
7.078834080532474,-0.0153719997033476,-0.9943000078201294,-0.0924759954214096,-1.277500033378601,0.332500010728836,0.332500010728836
7.099175557775383,-0.0156159996986389,-0.9935680031776428,-0.0922319963574409,-1.2599999904632568,0.3675000071525574,0.3499999940395355
7.119517035018292,-0.0168359987437725,-0.9947879910469056,-0.0934519991278648,-1.2949999570846558,0.3849999904632568,0.3499999940395355
7.139858512261202,-0.0173240005970001,-0.9967399835586548,-0.0954039990901947,-1.3125,0.4724999964237213,0.332500010728836
7.160199989504111,-0.0156159996986389,-0.9938119649887084,-0.0932080000638961,-1.225000023841858,0.4900000095367431,0.3149999976158142
7.18054146674702,-0.0143959997221827,-0.9935680031776428,-0.0939399972558021,-1.3125,0.5600000023841858,0.3849999904632568
7.20088294398993,-0.0173240005970001,-0.9957639575004578,-0.0961359962821006,-1.5225000381469729,0.6299999952316284,0.5074999928474426
7.221224421232839,-0.0202520005404949,-0.9979599714279176,-0.0997959971427917,-1.4524999856948853,0.5074999928474426,0.5600000023841858
7.2415658984757485,-0.0207399986684322,-0.9928359985351562,-0.0961359962821006,-1.1200000047683716,0.5600000023841858,0.4724999964237213
7.261907375718658,-0.0163480006158351,-0.98990797996521,-0.095160000026226,-1.0674999952316284,0.699999988079071,0.4025000035762787
7.282248852961567,-0.0139079997316002,-0.990884006023407,-0.0922319963574409,-1.3300000429153442,0.8224999904632568,0.4550000131130218
7.302590330204477,-0.0170799996703863,-0.9918599724769592,-0.0934519991278648,-1.5575000047683716,0.7524999976158142,0.612500011920929
7.322931807447386,-0.0185439996421337,-0.9960079789161682,-0.095891997218132,-1.8550000190734863,0.6474999785423279,0.6474999785423279
7.343273284690295,-0.0195199996232986,-0.9960079789161682,-0.0983319953083992,-1.75,0.4900000095367431,0.6650000214576721
7.363614761933205,-0.0204959996044635,-0.993079960346222,-0.0983319953083992,-1.6100000143051147,0.3675000071525574,0.6650000214576721
7.383956239176114,-0.0195199996232986,-0.9923479557037354,-0.0985759943723678,-1.6974999904632568,0.262499988079071,0.6825000047683716
7.404297716419023,-0.0190319996327161,-0.9933239817619324,-0.0985759943723678,-1.8200000524520876,0.2100000083446502,0.7524999976158142
7.424639193661933,-0.0168359987437725,-0.9896639585494996,-0.0949160009622573,-1.9075000286102293,0.1574999988079071,0.7350000143051147
7.444980670904842,-0.0165919996798038,-0.9896639585494996,-0.0939399972558021,-2.275000095367432,0.1574999988079071,0.8400000333786011
7.465322148147751,-0.0178119987249374,-0.9945439696311952,-0.0971119999885559,-2.6075000762939453,0.1749999970197677,0.9449999928474426
7.485663625390661,-0.0190319996327161,-0.9918599724769592,-0.0961359962821006,-2.3975000381469727,0.1574999988079071,0.9449999928474426
7.50600510263357,-0.0175679996609687,-0.990884006023407,-0.0956479981541633,-2.432500123977661,0.1574999988079071,0.9100000262260436
7.5263465798764795,-0.0168359987437725,-0.9933239817619324,-0.0963799953460693,-2.625,0.1924999952316284,1.0325000286102295
7.546688057119389,-0.0170799996703863,-0.9918599724769592,-0.0949160009622573,-2.677500009536743,0.262499988079071,1.0499999523162842
7.567029534362298,-0.0175679996609687,-0.9918599724769592,-0.095891997218132,-2.7300000190734863,0.1924999952316284,1.1200000047683716
7.5873710116052075,-0.0170799996703863,-0.9906399846076964,-0.0949160009622573,-2.887500047683716,0.332500010728836,1.2424999475479126
7.607712488848117,-0.0170799996703863,-0.990884006023407,-0.0966240018606185,-3.0975000858306885,0.4025000035762787,1.277500033378601
7.628053966091026,-0.0175679996609687,-0.9916160106658936,-0.0973559990525245,-3.255000114440918,0.5774999856948853,1.3125
7.648395443333936,-0.0178119987249374,-0.9911279678344728,-0.0983319953083992,-3.3949999809265137,0.6474999785423279,1.3650000095367432
7.668736920576845,-0.0190319996327161,-0.98990797996521,-0.099551998078823,-3.5350000858306885,0.7875000238418579,1.4350000619888306
7.689078397819754,-0.0204959996044635,-0.9884439706802368,-0.1005280017852783,-3.674999952316284,0.8400000333786011,1.4874999523162842
7.709419875062664,-0.0195199996232986,-0.98990797996521,-0.1010159999132156,-3.8324999809265137,0.8924999833106995,1.5399999618530271
7.729761352305573,-0.0212280005216598,-0.9894199967384338,-0.1017479971051216,-4.147500038146973,0.9975000023841858,1.6449999809265137
7.750102829548482,-0.0222040005028247,-0.9879559874534608,-0.1032119989395141,-4.357500076293945,1.1024999618530271,1.6449999809265137
7.770444306791392,-0.0212280005216598,-0.9882000088691713,-0.1061399951577186,-4.65500020980835,1.225000023841858,1.715000033378601
7.790785784034301,-0.0214719995856285,-0.9886879920959472,-0.1066280007362365,-4.952499866485596,1.2599999904632568,1.75
7.8111272612772105,-0.0222040005028247,-0.9889319539070128,-0.1063839942216873,-5.197500228881836,1.3825000524520874,1.784999966621399
7.83146873852012,-0.0251320004463195,-0.9869799613952636,-0.1078479960560798,-5.302500247955322,1.347499966621399,1.9600000381469729
7.851810215763029,-0.0243999995291233,-0.9850279688835144,-0.1090679988265037,-5.512499809265137,1.3125,1.9600000381469729
7.8721516930059385,-0.0256199985742568,-0.9860039949417114,-0.1115079969167709,-5.827499866485596,1.3125,2.117500066757202
7.892493170248848,-0.0268399994820356,-0.9852719902992249,-0.1122400015592575,-6.177500247955322,1.3125,2.2225000858306885
7.912834647491757,-0.0285479985177516,-0.9860039949417114,-0.1127279996871948,-6.510000228881836,1.4175000190734863,2.2225000858306885
7.933176124734667,-0.0278159994632005,-0.9860039949417114,-0.1171199977397918,-7.017499923706055,1.4524999856948853,2.327500104904175
7.953517601977576,-0.0280600003898143,-0.9842959642410278,-0.1158999949693679,-7.034999847412109,1.5225000381469729,2.275000095367432
7.973859079220485,-0.0297679994255304,-0.9855159521102904,-0.1168759986758232,-7.315000057220459,1.5575000047683716,2.3975000381469727
7.994200556463395,-0.0326960012316703,-0.9842959642410278,-0.1185839995741844,-7.595000267028809,1.4175000190734863,2.450000047683716
8.014542033706304,-0.032940000295639,-0.9847840070724488,-0.1200480014085769,-7.822500228881836,1.3300000429153442,2.432500123977661
8.034883510949214,-0.0353799983859062,-0.9835639595985411,-0.1212679967284202,-8.067500114440918,1.1549999713897705,2.432500123977661
8.055224988192125,-0.0346480011940002,-0.9828319549560548,-0.1224879994988441,-8.329999923706055,1.1375000476837158,2.502500057220459
8.075566465435035,-0.0339160002768039,-0.9823439717292786,-0.1234639957547187,-8.75,1.1024999618530271,2.5899999141693115
8.095907942677945,-0.0363559983670711,-0.981123983860016,-0.1229759976267814,-9.15250015258789,0.9449999928474426,2.6424999237060547
8.116249419920855,-0.0366000011563301,-0.9821000099182128,-0.1254159957170486,-9.642499923706056,0.8400000333786011,2.677500009536743
8.136590897163765,-0.0397720001637935,-0.9799039959907532,-0.1234639957547187,-9.869999885559082,0.7875000238418579,2.484999895095825
8.156932374406676,-0.0402599982917308,-0.981123983860016,-0.1249279975891113,-10.307499885559082,0.6474999785423279,2.327500104904175
8.177273851649586,-0.038307998329401,-0.977463960647583,-0.1249279975891113,-10.744999885559082,0.2975000143051147,2.240000009536743
8.197615328892496,-0.037331998348236,-0.9821000099182128,-0.1263919919729232,-11.619999885559082,-0.2100000083446502,2.327500104904175
8.217956806135406,-0.0378200002014637,-0.9789279699325562,-0.1290760040283203,-11.77750015258789,-0.5074999928474426,2.1700000762939453
8.238298283378317,-0.037331998348236,-0.9781959652900696,-0.1305399984121322,-12.232500076293944,-0.875,2.1875
8.258639760621227,-0.0378200002014637,-0.9777079820632936,-0.1300520002841949,-12.529999732971191,-1.347499966621399,2.1524999141693115
8.278981237864137,-0.0395279973745346,-0.975268006324768,-0.1310279965400695,-12.72249984741211,-1.7675000429153442,2.1875
8.299322715107047,-0.0392839983105659,-0.973315954208374,-0.1317600011825561,-12.949999809265137,-2.2925000190734863,2.257499933242798
8.319664192349958,-0.041967999190092,-0.9725840091705322,-0.1315159946680069,-13.072500228881836,-2.887500047683716,2.309999942779541
8.340005669592868,-0.0434319972991943,-0.9757559895515442,-0.13298000395298,-13.387499809265137,-3.674999952316284,2.380000114440918
8.360347146835778,-0.041967999190092,-0.9794159531593324,-0.1354199945926666,-13.09000015258789,-4.427500247955322,2.502500057220459
8.380688624078688,-0.0470919981598854,-0.974291980266571,-0.1363959908485412,-12.28499984741211,-5.302500247955322,2.572499990463257
8.401030101321599,-0.0531919971108436,-0.9635559916496276,-0.1341999918222427,-11.40999984741211,-6.40500020980835,2.327500104904175
8.421371578564509,-0.0390399992465972,-0.9681919813156128,-0.1234639957547187,-11.952500343322754,-7.664999961853027,1.9600000381469729
8.44171305580742,-0.0436760000884532,-0.9781959652900696,-0.1178519949316978,-12.21500015258789,-8.907500267028809,2.1524999141693115
8.46205453305033,-0.0502640008926391,-0.9738039970397948,-0.118827998638153,-11.392499923706056,-10.289999961853027,2.240000009536743
8.48239601029324,-0.0453839972615242,-0.9564799666404724,-0.1105320006608963,-10.045000076293944,-12.232500076293944,2.432500123977661
8.50273748753615,-0.0514839999377727,-0.9469639658927916,-0.1105320006608963,-9.3100004196167,-14.4375,3.237499952316284
8.52307896477906,-0.0597799979150295,-0.9381799697875975,-0.1027240008115768,-8.78499984741211,-16.274999618530273,4.53249979019165
8.54342044202197,-0.0744199976325035,-0.9454999566078186,-0.1024799942970275,-10.0625,-20.96500015258789,7.980000019073486
8.56376191926488,-0.0914999991655349,-0.9445239901542664,-0.109555996954441,-10.56999969482422,-23.975000381469727,9.3100004196167
8.58410339650779,-0.0936959981918335,-0.924027979373932,-0.1117519959807396,-10.324999809265137,-27.14249992370605,9.625
8.604444873750701,-0.0885719954967498,-0.8940159678459167,-0.0971119999885559,-11.042500495910645,-30.957500457763672,9.800000190734863
8.624786350993611,-0.0895479992032051,-0.8720560073852539,-0.0905239954590797,-13.142499923706056,-35.26250076293945,9.25749969482422
8.645127828236522,-0.0778359994292259,-0.823743999004364,-0.0905239954590797,-13.649999618530272,-40.1974983215332,7.840000152587891
8.665469305479432,-0.0551439970731735,-0.7978799939155579,-0.0326960012316703,-17.97249984741211,-47.372501373291016,8.102499961853027
8.685810782722342,-0.0558759979903698,-0.8474119901657104,-0.0639280006289482,-28.227500915527344,-56.13999938964844,9.15250015258789
8.706152259965252,0.0119559997692704,-0.8608319759368896,-0.1219999939203262,-27.982500076293945,-63.647499084472656,8.172499656677246
8.726493737208163,0.0129319997504353,-0.8600999712944031,-0.2169159948825836,-15.78499984741211,-59.5,6.072500228881836
8.746835214451073,-0.0341599993407726,-0.8464359641075134,-0.2744999825954437,-3.6050000190734863,-54.38999938964844,5.389999866485596
8.767176691693983,-0.0819839984178543,-0.8374080061912537,-0.3172000050544739,3.920000076293945,-50.942501068115234,5.53000020980835
8.787518168936893,-0.0585599988698959,-0.7817760109901428,-0.3276920020580292,8.522500038146973,-45.86750030517578,5.809999942779541
8.807859646179804,0.0114679997786879,-0.6805160045623779,-0.2847479879856109,8.574999809265137,-40.56499862670898,9.397500038146973
8.828201123422714,0.0119559997692704,-0.5738880038261414,-0.2779159843921661,3.0625,-35.61249923706055,16.65999984741211
8.848542600665624,-0.0361119993031024,-0.4811680018901825,-0.2513200044631958,-10.114999771118164,-33.75749969482422,25.357500076293945
8.868884077908534,-0.0912560001015663,-0.4714079797267914,-0.2320439964532852,-29.732500076293945,-33.6875,34.1775016784668
8.889225555151445,-0.1708000004291534,-0.5714479684829712,-0.220331996679306,-43.084999084472656,-36.45249938964844,36.2599983215332
8.909567032394355,-0.2152079939842224,-0.610975980758667,-0.1854400038719177,-35.90999984741211,-49.47249984741211,31.0625
8.929908509637265,-0.1969079971313476,-0.5126439929008484,-0.0461159981787204,-24.86750030517578,-63.875,26.774999618530277
8.950249986880175,-0.0856439992785453,-0.4667719900608063,-0.0107359997928142,-32.20000076293945,-80.13249969482422,31.167499542236328
8.970591464123086,-0.0124439997598528,-0.447983980178833,-0.0949160009622573,-45.34249877929688,-95.65499877929688,49.647499084472656
8.990932941365996,0.2239919900894165,-0.6182959675788879,-0.2125239968299865,-69.37000274658203,-101.29000091552734,70.61250305175781
9.011274418608906,0.1590880006551742,-0.779092013835907,-0.3552640080451965,-94.46500396728516,-88.07749938964844,83.86000061035156
9.031615895851816,-0.1017479971051216,-0.8718119859695435,-0.4757999777793884,-115.48249816894533,-74.375,92.80249786376952
9.051957373094726,-0.3130519986152649,-1.0538359880447388,-0.5624200105667114,-129.16749572753906,-61.3025016784668,106.0500030517578
9.072298850337637,-0.465063989162445,-1.3185759782791138,-0.5775479674339294,-136.77999877929688,-56.89250183105469,117.84500122070312
9.092640327580547,-0.6324479579925537,-1.177788019180298,-0.501908004283905,-126.94499969482422,-53.497501373291016,127.69750213623048
9.112981804823457,-0.8203279972076416,-1.0404160022735596,-0.5299679636955261,-135.15249633789062,-56.13999938964844,141.19000244140625
9.133323282066367,-0.8661999702453613,-1.1887680292129517,-0.5668119788169861,-157.83250427246094,-65.32749938964844,166.8625030517578
9.153664759309278,-0.2901159822940826,-1.5652599334716797,-0.5270400047302246,-145.19749450683594,-56.82250213623047,176.7324981689453
9.174006236552188,-0.2583959996700287,-1.2217079401016235,-0.1520119905471801,-126.6125030517578,-60.51499938964844,167.45750427246094
9.194347713795098,-0.5499759912490845,-0.8483879566192627,0.2508319914340973,-131.33749389648438,-70.64749908447266,166.4774932861328
9.214689191038008,-0.6265919804573059,-0.4177280068397522,0.1576239913702011,-130.70750427246094,-79.50250244140625,171.97250366210938
9.235030668280919,-0.4582319855690002,-0.0495319999754428,-0.2381439954042434,-123.9000015258789,-76.4574966430664,178.58749389648438
9.255372145523829,-0.5690079927444458,0.2042279988527298,-0.575107991695404,-104.40499877929688,-71.54000091552734,167.8074951171875
9.27571362276674,-1.1062959432601929,0.3662439882755279,-0.5448520183563232,-88.62000274658203,-88.69000244140625,158.8125
9.29605510000965,-1.8231679201126096,0.1105320006608963,-0.7298039793968201,-82.02249908447266,-120.69750213623048,151.93499755859375
9.31639657725256,-1.735327959060669,-0.071492001414299,-0.5165479779243469,-44.310001373291016,-168.27999877929688,148.01499938964844
9.33673805449547,-1.219756007194519,0.3957679867744446,-0.6592879891395569,42.962501525878906,-159.25,144.3574981689453
9.35707953173838,-0.851315975189209,0.8854759931564331,-0.4792159795761108,74.00749969482422,-142.3975067138672,155.1024932861328
9.37742100898129,-1.1080039739608765,0.4789719879627228,-0.30621999502182,15.662500381469728,-114.7125015258789,160.87750244140625
9.3977624862242,-1.389580011367798,0.3494080007076263,-0.3174439966678619,6.877500057220459,-101.8324966430664,147.07000732421875
9.41810396346711,-1.490351915359497,1.0565199851989746,-0.1481079906225204,13.072500228881836,-113.47000122070312,147.29750061035156
9.438445440710021,-1.5274399518966677,0.5563200116157532,-0.5187439918518066,-47.915000915527344,-117.4250030517578,157.39500427246094
9.458786917952931,-1.720687985420227,1.0167479515075684,-0.4028439819812774,-6.352499961853027,-109.16500091552734,116.83000183105467
9.479128395195842,-1.6953120231628418,1.3483439683914185,-0.5670560002326965,20.71999931335449,-72.92250061035156,66.69249725341797
9.499469872438752,-1.3476120233535769,1.077015995979309,-0.1005280017852783,-2.625,-61.19750213623047,39.67250061035156
9.519811349681662,-1.0872639417648315,0.9298839569091796,0.0014639999717473,-13.842499732971191,-27.982500076293945,17.762500762939453
9.540152826924572,-0.9860039949417114,0.8432639837265015,0.0097599998116493,-26.040000915527344,0.1050000041723251,4.287499904632568
9.560494304167483,-0.8478999733924866,0.6988160014152527,0.0097599998116493,-37.06499862670898,4.480000019073486,-0.4200000166893005
9.580835781410393,-0.6995480060577393,0.5592479705810547,-0.010491999797523,-36.04999923706055,1.6100000143051147,-1.0325000286102295
9.601177258653303,-0.6673399806022644,0.468968003988266,-0.0053679998964071,-31.149999618530277,1.4874999523162842,-6.755000114440918
9.621518735896213,-0.6346439719200134,0.4250479936599731,-0.0117119997739791,-24.149999618530277,0.4200000166893005,-15.34749984741211
9.641860213139124,-0.611952006816864,0.3242760002613067,-0.0739319995045661,-18.707500457763672,-4.847499847412109,-20.877500534057617
9.662201690382034,-0.6060959696769714,0.3574599921703338,-0.0192760005593299,-3.447499990463257,-10.237500190734863,-27.895000457763672
9.682543167624944,-0.517035961151123,0.3181760013103485,-0.0578279979526996,1.924999952316284,-14.80500030517578,-33.127498626708984
9.702884644867854,-0.4760439991950989,0.3601439893245697,-0.009515999816358,14.210000038146973,-12.862500190734863,-38.90250015258789
9.723226122110765,-0.5453400015830994,0.4030880033969879,0.0185439996421337,15.78499984741211,-6.002500057220459,-41.29999923706055
9.743567599353675,-0.6236639618873596,0.3796640038490295,-0.0226919986307621,14.297499656677246,-7.542500019073486,-37.95750045776367
9.763909076596585,-0.7632319927215576,0.4984920024871826,0.0446520000696182,21.332500457763672,-16.012500762939453,-28.524999618530277
9.784250553839495,-0.9115839600563048,0.5143519639968872,0.0378200002014637,13.614999771118164,-22.627500534057617,-20.107500076293945
9.804592031082406,-1.0638400316238403,0.550707995891571,0.0897919982671737,8.539999961853027,-32.40999984741211,-7.927500247955322
9.824933508325316,-1.0452959537506104,0.493367999792099,0.1041879951953888,-0.4025000035762787,-38.657501220703125,-6.072500228881836
9.845274985568226,-0.9869799613952636,0.4604279994964599,0.1507920026779174,1.9075000286102293,-37.747501373291016,-12.72249984741211
9.865616462811136,-0.9076799750328064,0.3925960063934326,0.1966639906167984,3.4825000762939453,-36.73250198364258,-19.63500022888184
9.885957940054046,-0.8979200124740601,0.3452599942684173,0.2383880019187927,10.692500114440918,-24.07999992370605,-29.575000762939453
9.906299417296957,-0.9106079936027528,0.2825520038604736,0.3123199939727783,24.51749992370605,-8.977499961853027,-42.33250045776367
9.926640894539867,-0.7934879660606384,0.1466439962387085,0.4045519828796386,35.087501525878906,3.009999990463257,-54.040000915527344
9.946982371782777,-0.7944639921188354,0.1893439888954162,0.3096359968185425,62.47499847412109,25.44499969482422,-70.92749786376953
9.967323849025687,-0.6297639608383179,0.1176079958677291,0.0592919997870922,69.4749984741211,33.162498474121094,-87.32499694824219
9.987665326268598,-0.5109359622001648,0.2971920073032379,0.119559995830059,48.96500015258789,96.93250274658205,-60.88249969482422
10.008006803511508,-0.8464359641075134,0.163235992193222,0.2620559930801391,31.762500762939453,175.73500061035156,-66.51750183105469
10.028348280754418,-1.3981199264526367,-0.0295239984989166,0.075883999466896,-46.51499938964844,92.6449966430664,-41.02000045776367
10.048689757997328,-1.6387039422988892,-0.0390399992465972,-0.5043479800224304,-125.93000030517578,-12.302499771118164,14.157500267028809
10.069031235240239,-1.7211759090423584,0.2598600089550018,-0.3996720016002655,-26.18000030517578,60.462501525878906,14.017499923706056
10.089372712483149,-1.1094679832458496,0.1683599948883056,-0.0224479995667934,-10.289999961853027,74.21749877929688,4.304999828338623
10.10971418972606,-0.9625799655914308,-0.216183990240097,-0.0639280006289482,-29.81999969482422,45.95500183105469,-4.760000228881836
10.13005566696897,-0.8952359557151794,-0.0993079990148544,-0.3408679962158203,16.677499771118164,38.32500076293945,-17.412500381469727
10.15039714421188,-0.8056879639625549,0.1222440004348754,-0.2959719896316528,27.842500686645508,23.39750099182129,-18.84749984741211
10.17073862145479,-0.7973920106887817,0.1612839996814727,-0.2342399954795837,11.270000457763672,20.59749984741211,-12.582500457763672
10.1910800986977,-0.8149600028991699,-0.0234239995479583,-0.2220399975776672,-3.0625,26.61750030517578,-5.127500057220459
10.21142157594061,-0.8671759963035583,-0.119559995830059,-0.236191987991333,4.585000038146973,30.170000076293945,-4.637499809265137
10.23176305318352,-0.9062159657478333,-0.0744199976325035,-0.2291159927845001,23.78249931335449,27.49250030517578,-10.850000381469728
10.25210453042643,-0.9686799645423888,0.0832040011882782,-0.2713280022144317,44.11750030517578,22.61000061035156,-15.399999618530272
10.272446007669341,-1.0082080364227295,0.1888559907674789,-0.326227992773056,41.650001525878906,22.52250099182129,-13.895000457763672
10.292787484912251,-1.0765279531478882,0.1139479950070381,-0.4011359810829162,20.177499771118164,28.4375,-6.755000114440918
10.313128962155162,-1.0535919666290283,0.0563639998435974,-0.3696599900722503,9.730000495910645,26.4424991607666,1.4350000619888306
10.333470439398072,-1.0099159479141235,0.0141519997268915,-0.3196399807929992,0.7350000143051147,14.087499618530272,7.227499961853027
10.353811916640982,-1.0167479515075684,0.0407480001449584,-0.3098799884319305,-1.8550000190734863,-1.7675000429153442,10.324999809265137
10.374153393883892,-1.030411958694458,0.118827998638153,-0.2759639918804168,-4.130000114440918,-16.362499237060547,13.912500381469728
10.394494871126803,-1.0111359357833862,0.1217559948563575,-0.249123990535736,-3.6575000286102295,-17.86750030517578,11.00749969482422
10.414836348369713,-0.9789279699325562,0.1564040035009384,-0.2210640013217926,-1.627500057220459,-17.395000457763672,6.579999923706055
10.435177825612623,-0.9620919823646544,0.1517679989337921,-0.2052039951086044,-1.3125,-11.462499618530272,2.450000047683716
10.455519302855533,-0.948915958404541,0.1310279965400695,-0.1903200000524521,0.3149999976158142,-5.862500190734863,-1.0325000286102295
10.475860780098444,-0.9437919855117798,0.0975999981164932,-0.1837320029735565,1.4175000190734863,-1.4874999523162842,-3.377500057220459
10.496202257341354,-0.9320799708366394,0.08661999553442,-0.1808039993047714,1.6974999904632568,-0.5774999856948853,-4.514999866485596
10.516543734584264,-0.924027979373932,0.0705159977078437,-0.1881240010261535,0.0175000000745058,-1.2074999809265137,-4.147500038146973
10.536885211827174,-0.93012797832489,0.0729559957981109,-0.1864160001277923,0.2275000065565109,-2.555000066757202,-3.447499990463257
10.557226689070085,-0.9464759826660156,0.0710039958357811,-0.1920280009508133,-0.0175000000745058,-3.569999933242798,-2.2925000190734863
10.577568166312995,-0.9535520076751708,0.0680759996175766,-0.2012999951839447,-0.0175000000745058,-3.552500009536743,-1.4350000619888306
10.597909643555905,-0.954039990901947,0.0780799984931945,-0.1951999962329864,0.8224999904632568,-2.5199999809265137,-0.4025000035762787
10.618251120798815,-0.9616039991378784,0.0832040011882782,-0.196175992488861,1.4524999856948853,-0.4550000131130218,0.0874999985098838
10.638592598041726,-0.9689239859580994,0.0844239965081214,-0.2027639895677566,2.2225000858306885,1.2949999570846558,-0.3149999976158142
10.658934075284636,-0.9757559895515442,0.095891997218132,-0.2149640023708343,2.922499895095825,2.450000047683716,-1.5575000047683716
10.679275552527546,-0.9818559885025024,0.0939399972558021,-0.230335995554924,1.6974999904632568,3.0450000762939453,-2.134999990463257
10.699617029770456,-0.9855159521102904,0.0802759975194931,-0.234484001994133,0.4375,3.237499952316284,-1.75
10.719958507013366,-0.982587993144989,0.0741759985685348,-0.2381439954042434,0.7699999809265137,2.887500047683716,-1.2074999809265137
10.740299984256277,-0.9769759774208068,0.0805199965834617,-0.234484001994133,0.8575000166893005,1.9774999618530276,-0.0175000000745058
10.760641461499187,-0.9662399888038636,0.0756400004029274,-0.2286279946565628,0.2800000011920929,0.6650000214576721,1.0325000286102295
10.780982938742097,-0.9555040001869202,0.0839359983801841,-0.2178919911384582,1.1024999618530271,-0.4550000131130218,1.0674999952316284
10.801324415985007,-0.9486719965934752,0.0875959992408752,-0.2108159959316253,1.5049999952316284,-1.1725000143051147,0.699999988079071
10.821665893227918,-0.9569680094718932,0.0893040001392364,-0.2122799903154373,2.2225000858306885,-1.4175000190734863,0.0700000002980232
10.842007370470828,-0.9603840112686156,0.0893040001392364,-0.2152079939842224,2.257499933242798,-1.4524999856948853,-0.6474999785423279
10.862348847713738,-0.9608719944953918,0.090279996395111,-0.2171600013971328,1.8025000095367432,-1.2424999475479126,-0.8924999833106995
10.882690324956648,-0.9611159563064576,0.0873520001769065,-0.2110600024461746,0.9800000190734864,-1.277500033378601,-0.7875000238418579
10.903031802199559,-0.9589200019836426,0.0885719954967498,-0.2093520015478134,0.7875000238418579,-1.2074999809265137,-0.7350000143051147
10.923373279442469,-0.96697199344635,0.075883999466896,-0.2122799903154373,0.0874999985098838,-1.2949999570846558,-0.4900000095367431
10.94371475668538,-0.9716079831123352,0.0807639956474304,-0.2152079939842224,0.7350000143051147,-1.190000057220459,-0.6825000047683716
10.96405623392829,-0.9755119681358336,0.0854000002145767,-0.2137439996004104,0.2450000047683715,-0.875,-0.4200000166893005
10.9843977111712,-0.9691680073738098,0.0790559947490692,-0.2100839912891388,-0.8050000071525574,-0.6650000214576721,0.0700000002980232
11.00473918841411,-0.9650200009346008,0.085156001150608,-0.2073999941349029,-0.5600000023841858,-0.4200000166893005,-0.1574999988079071
11.02508066565702,-0.9625799655914308,0.0817399993538856,-0.2054480016231537,-0.5249999761581421,0.1924999952316284,-0.2975000143051147
11.04542214289993,-0.9611159563064576,0.0783239975571632,-0.2088640034198761,0.0700000002980232,0.4900000095367431,-0.4025000035762787
11.06576362014284,-0.9657520055770874,0.0827159956097602,-0.2081319987773895,0.699999988079071,0.3849999904632568,-0.4375
11.086105097385751,-0.9677039980888368,0.0844239965081214,-0.2139879912137985,0.699999988079071,0.7524999976158142,-0.5600000023841858
11.106446574628661,-0.9628239870071412,0.0834480002522468,-0.2117919921875,0.4200000166893005,0.7875000238418579,-0.4200000166893005
11.126788051871571,-0.96453195810318,0.0829599946737289,-0.2122799903154373,0.4724999964237213,0.9975000023841858,-0.5249999761581421
11.147129529114482,-0.9611159563064576,0.0849120020866394,-0.2091079950332641,0.4375,1.0850000381469729,-0.5774999856948853
11.167471006357392,-0.961847960948944,0.0832040011882782,-0.210327997803688,0.2800000011920929,1.0674999952316284,-0.612500011920929
11.187812483600302,-0.966484010219574,0.0822279974818229,-0.2147199958562851,0.1924999952316284,0.9975000023841858,-0.5249999761581421
11.208153960843212,-0.9698999524116516,0.0836919993162155,-0.2210640013217926,0.1924999952316284,0.8400000333786011,-0.4900000095367431
11.228495438086123,-0.973315954208374,0.0795440003275871,-0.2195999920368194,-0.1574999988079071,0.1050000041723251,-0.3849999904632568
11.248836915329033,-0.9681919813156128,0.0817399993538856,-0.2169159948825836,0.9100000262260436,-0.0175000000745058,-1.2599999904632568
11.269178392571943,-0.9635559916496276,0.0810080021619796,-0.2152079939842224,1.3125,0.2975000143051147,-1.399999976158142
11.289519869814853,-0.9616039991378784,0.0778359994292259,-0.2132560014724731,1.1725000143051147,0.2100000083446502,-1.0325000286102295
11.309861347057764,-0.962336003780365,0.0817399993538856,-0.2120359987020492,0.7875000238418579,-0.1574999988079071,-0.5249999761581421
11.330202824300674,-0.9594079852104188,0.0790559947490692,-0.210327997803688,0.3149999976158142,-0.262499988079071,-0.4724999964237213
11.350544301543584,-0.9616039991378784,0.0751519948244094,-0.2100839912891388,0.1924999952316284,-0.262499988079071,-0.4200000166893005
11.370885778786494,-0.9620919823646544,0.0795440003275871,-0.2100839912891388,0.8575000166893005,-0.2450000047683715,-0.5774999856948853
11.391227256029405,-0.9642879962921144,0.0771040022373199,-0.2154520004987716,0.8224999904632568,-0.0175000000745058,-0.4550000131130218
11.411568733272315,-0.9630680084228516,0.0805199965834617,-0.2110600024461746,1.0850000381469729,-0.1924999952316284,-0.1749999970197677
11.431910210515225,-0.9603840112686156,0.0790559947490692,-0.2073999941349029,0.8575000166893005,-0.1050000041723251,-0.2275000065565109
11.452251687758135,-0.9598959684371948,0.0739319995045661,-0.2054480016231537,1.1200000047683716,0.0874999985098838,-0.2275000065565109
11.472593165001046,-0.961359977722168,0.0785679966211319,-0.2115480005741119,1.7324999570846558,0.3499999940395355,-0.2450000047683715
11.492934642243956,-0.965507984161377,0.0807639956474304,-0.2125239968299865,1.6100000143051147,0.5774999856948853,0.0700000002980232
11.513276119486866,-0.9659959673881532,0.0827159956097602,-0.2147199958562851,1.0850000381469729,0.2800000011920929,0.0525000020861625
11.533617596729776,-0.9694119691848756,0.0832040011882782,-0.2159399986267089,0.8050000071525574,-0.1400000005960464,0.1225000023841857
11.553959073972687,-0.9691680073738098,0.0763719975948333,-0.2144759893417358,0.0525000020861625,-0.2800000011920929,-0.332500010728836
11.574300551215597,-0.9628239870071412,0.0793000012636184,-0.2086199969053268,0.5950000286102295,-0.2800000011920929,-0.8224999904632568
11.594642028458507,-0.962336003780365,0.0788119956851005,-0.2076440006494522,0.2800000011920929,-0.0874999985098838,-0.6650000214576721
11.614983505701417,-0.9657520055770874,0.075883999466896,-0.2113039940595626,0.1050000041723251,0.1749999970197677,-0.4550000131130218
11.635324982944327,-0.9652639627456664,0.0744199976325035,-0.2132560014724731,0.2450000047683715,0.2975000143051147,-0.4375
11.655666460187238,-0.9642879962921144,0.0746639966964721,-0.2122799903154373,0.4724999964237213,0.2450000047683715,-0.3499999940395355
11.676007937430148,-0.96453195810318,0.0761279985308647,-0.2117919921875,0.8575000166893005,0.1924999952316284,-0.262499988079071
11.696349414673058,-0.96453195810318,0.0790559947490692,-0.2125239968299865,1.0325000286102295,0.2450000047683715,-0.1574999988079071
11.716690891915968,-0.965507984161377,0.0775920003652572,-0.2144759893417358,0.8224999904632568,0.2100000083446502,-0.0700000002980232
11.737032369158879,-0.9657520055770874,0.0783239975571632,-0.2137439996004104,0.8575000166893005,0.1749999970197677,-0.1400000005960464
11.757373846401789,-0.9657520055770874,0.0805199965834617,-0.2134999930858612,0.8400000333786011,0.2100000083446502,-0.0175000000745058
11.7777153236447,-0.9647759795188904,0.0810080021619796,-0.2115480005741119,0.8224999904632568,0.5074999928474426,-0.1574999988079071
11.79805680088761,-0.9611159563064576,0.0795440003275871,-0.2098399996757507,0.7699999809265137,0.5774999856948853,-0.3149999976158142
11.81839827813052,-0.9625799655914308,0.0785679966211319,-0.2108159959316253,0.962499976158142,0.612500011920929,-0.4025000035762787
11.83873975537343,-0.9674599766731262,0.0800319984555244,-0.2152079939842224,0.8050000071525574,0.5425000190734863,-0.2100000083446502
11.85908123261634,-0.9684360027313232,0.0834480002522468,-0.2176479995250702,0.262499988079071,0.5249999761581421,-0.0525000020861625
11.87942270985925,-0.9686799645423888,0.0751519948244094,-0.2152079939842224,-0.5249999761581421,-0.0175000000745058,0.2975000143051147
11.89976418710216,-0.9647759795188904,0.0805199965834617,-0.2105719894170761,-0.2800000011920929,0.0700000002980232,-0.2100000083446502
11.920105664345071,-0.9647759795188904,0.0785679966211319,-0.2117919921875,-0.5600000023841858,0.4375,-0.2275000065565109
11.940447141587981,-0.9628239870071412,0.0800319984555244,-0.2100839912891388,-0.5950000286102295,0.4724999964237213,-0.2275000065565109
11.960788618830891,-0.9628239870071412,0.0810080021619796,-0.2086199969053268,-1.1375000476837158,0.4550000131130218,-0.1050000041723251
11.981130096073802,-0.9630680084228516,0.0822279974818229,-0.2091079950332641,-1.75,0.4900000095367431,-0.0175000000745058
12.001471573316712,-0.9642879962921144,0.0832040011882782,-0.2093520015478134,-2.432500123977661,0.5425000190734863,0.2800000011920929
12.021813050559622,-0.962336003780365,0.0751519948244094,-0.2110600024461746,-2.6424999237060547,0.7350000143051147,0.0525000020861625
12.042154527802532,-0.9620919823646544,0.0805199965834617,-0.2115480005741119,-1.8725000619888303,1.0499999523162842,-0.2800000011920929
12.062496005045443,-0.961359977722168,0.0771040022373199,-0.2125239968299865,-1.8200000524520876,1.4874999523162842,-0.2100000083446502
12.082837482288353,-0.961847960948944,0.0775920003652572,-0.2134999930858612,-1.75,1.5924999713897705,-0.0525000020861625
12.103178959531263,-0.9620919823646544,0.0785679966211319,-0.2132560014724731,-1.4175000190734863,1.5399999618530271,-0.1749999970197677
12.123520436774173,-0.9625799655914308,0.0836919993162155,-0.2125239968299865,-1.5049999952316284,1.5225000381469729,0.0175000000745058
12.143861914017084,-0.9667279720306396,0.0807639956474304,-0.2191119939088821,-1.8025000095367432,1.3650000095367432,0.3675000071525574
12.164203391259994,-0.9679479598999025,0.0841799974441528,-0.2174039930105209,-2.240000009536743,1.2599999904632568,0.6299999952316284
12.184544868502904,-0.965507984161377,0.085887998342514,-0.2166720032691955,-2.502500057220459,1.0674999952316284,0.7175000309944153
12.204886345745814,-0.9659959673881532,0.0817399993538856,-0.2176479995250702,-2.765000104904175,0.9275000095367432,0.5249999761581421
12.225227822988725,-0.9674599766731262,0.0854000002145767,-0.2176479995250702,-2.502500057220459,1.1024999618530271,0.2100000083446502
12.245569300231635,-0.966484010219574,0.0836919993162155,-0.2176479995250702,-2.677500009536743,1.4700000286102295,0.1749999970197677
12.265910777474545,-0.9628239870071412,0.0841799974441528,-0.2134999930858612,-2.3975000381469727,1.6100000143051147,-0.0175000000745058
12.286252254717455,-0.9611159563064576,0.08661999553442,-0.2134999930858612,-2.275000095367432,1.837499976158142,-0.1050000041723251
12.306593731960366,-0.9637999534606934,0.0839359983801841,-0.2195999920368194,-2.555000066757202,2.1875,-0.1924999952316284
12.326935209203276,-0.9630680084228516,0.0841799974441528,-0.2217959910631179,-2.275000095367432,1.9424999952316284,-0.1924999952316284
12.347276686446186,-0.9628239870071412,0.0800319984555244,-0.2191119939088821,-2.117500066757202,1.715000033378601,-0.2975000143051147
12.367618163689096,-0.961359977722168,0.0836919993162155,-0.218868002295494,-1.9075000286102293,1.6100000143051147,-0.332500010728836
12.387959640932007,-0.9630680084228516,0.0829599946737289,-0.2178919911384582,-2.0824999809265137,1.5750000476837158,-0.1749999970197677
12.408301118174917,-0.9628239870071412,0.0868639945983886,-0.2222839891910553,-2.275000095367432,1.6449999809265137,0.0525000020861625
12.428642595417827,-0.96453195810318,0.0883279964327812,-0.2239919900894165,-2.694999933242798,1.6100000143051147,0.3849999904632568
12.448984072660737,-0.9625799655914308,0.0822279974818229,-0.2174039930105209,-3.0450000762939453,1.4874999523162842,0.1225000023841857
12.469325549903647,-0.9611159563064576,0.0846679955720901,-0.2166720032691955,-2.9749999046325684,1.680000066757202,0.1400000005960464
12.489667027146558,-0.9616039991378784,0.0863759964704513,-0.2217959910631179,-3.0274999141693115,1.995000004768372,0.2975000143051147
12.510008504389468,-0.9606279730796814,0.0836919993162155,-0.2237479984760284,-2.940000057220459,1.9075000286102293,0.5074999928474426
12.530349981632378,-0.9606279730796814,0.0880839973688125,-0.2230159938335418,-2.7300000190734863,1.5750000476837158,0.4900000095367431
12.550691458875288,-0.961847960948944,0.0883279964327812,-0.224480003118515,-2.712500095367432,1.4524999856948853,0.4550000131130218
12.571032936118199,-0.9642879962921144,0.0883279964327812,-0.2239919900894165,-2.362499952316284,1.4175000190734863,0.2450000047683715
12.591374413361109,-0.9635559916496276,0.0912560001015663,-0.2249680012464523,-2.047499895095825,1.5049999952316284,-0.0525000020861625
12.61171589060402,-0.962336003780365,0.0897919982671737,-0.2242359966039657,-2.0999999046325684,1.5924999713897705,-0.3849999904632568
12.63205736784693,-0.961847960948944,0.0905239954590797,-0.2254559993743896,-2.117500066757202,1.5575000047683716,-0.4200000166893005
12.65239884508984,-0.9606279730796814,0.0914999991655349,-0.2252119928598404,-2.380000114440918,1.5399999618530271,-0.2275000065565109
12.67274032233275,-0.9620919823646544,0.0832040011882782,-0.224480003118515,-2.9749999046325684,1.4874999523162842,-0.1574999988079071
12.69308179957566,-0.9601399898529052,0.0895479992032051,-0.2276519984006881,-2.817500114440918,1.680000066757202,-0.2275000065565109
12.71342327681857,-0.9594079852104188,0.0885719954967498,-0.2256999909877777,-2.9749999046325684,1.2949999570846558,0.0874999985098838
12.73376475406148,-0.9594079852104188,0.0846679955720901,-0.2271640002727508,-2.677500009536743,1.1024999618530271,0.0874999985098838
12.754106231304391,-0.962336003780365,0.0905239954590797,-0.2271640002727508,-2.5199999809265137,0.7524999976158142,0.2275000065565109
12.774447708547301,-0.9628239870071412,0.0878399983048439,-0.224480003118515,-2.4674999713897705,0.962499976158142,-0.0700000002980232
12.794789185790211,-0.9608719944953918,0.0929640009999275,-0.2276519984006881,-1.8899999856948853,1.0149999856948853,-0.1574999988079071
12.815130663033122,-0.958675980567932,0.090279996395111,-0.2239919900894165,-1.9075000286102293,0.8050000071525574,0.0175000000745058
12.835472140276032,-0.9562360048294068,0.0905239954590797,-0.2227720022201538,-1.662500023841858,0.7875000238418579,0.2275000065565109
12.855813617518942,-0.9598959684371948,0.0880839973688125,-0.2259439975023269,-1.5225000381469729,1.0149999856948853,0.1749999970197677
12.876155094761852,-0.9630680084228516,0.0885719954967498,-0.2305800020694732,-0.9100000262260436,0.8575000166893005,0.0350000001490116
12.896496572004763,-0.9662399888038636,0.0905239954590797,-0.2320439964532852,-0.2800000011920929,0.5950000286102295,-0.0350000001490116
12.916838049247673,-0.9647759795188904,0.0910120010375976,-0.2335079908370971,0.0874999985098838,0.4724999964237213,-0.1400000005960464
12.937179526490583,-0.9620919823646544,0.0890600010752677,-0.2291159927845001,0.5074999928474426,0.2800000011920929,-0.2275000065565109
12.957521003733493,-0.9601399898529052,0.0907679945230484,-0.2271640002727508,0.9275000095367432,0.2100000083446502,-0.2975000143051147
12.977862480976404,-0.9596520066261292,0.0939399972558021,-0.2283839881420135,0.7699999809265137,0.332500010728836,-0.2800000011920929
12.998203958219314,-0.9596520066261292,0.0907679945230484,-0.2264319956302642,0.2975000143051147,0.2800000011920929,-0.1924999952316284
13.018545435462224,-0.9598959684371948,0.0922319963574409,-0.2286279946565628,-0.0525000020861625,0.1225000023841857,-0.0874999985098838
13.038886912705134,-0.9601399898529052,0.0924759954214096,-0.226187989115715,-0.1749999970197677,0.2100000083446502,-0.0874999985098838
13.059228389948045,-0.9598959684371948,0.0907679945230484,-0.2269199937582016,-0.2800000011920929,0.2275000065565109,-0.1749999970197677
13.079569867190955,-0.961359977722168,0.090279996395111,-0.2271640002727508,-0.0525000020861625,0.2975000143051147,-0.2450000047683715
13.099911344433865,-0.9616039991378784,0.0907679945230484,-0.2291159927845001,0.0525000020861625,0.4375,-0.2275000065565109
13.120252821676775,-0.9606279730796814,0.0900359973311424,-0.228872001171112,0.1574999988079071,0.4025000035762787,-0.1749999970197677
13.140594298919686,-0.9598959684371948,0.0912560001015663,-0.2269199937582016,0.332500010728836,0.3149999976158142,-0.1225000023841857
13.160935776162596,-0.961847960948944,0.0917439982295036,-0.2274079918861389,0.4025000035762787,0.4200000166893005,-0.1400000005960464
13.181277253405506,-0.9625799655914308,0.0922319963574409,-0.2298479974269867,0.5600000023841858,0.4724999964237213,-0.1400000005960464
13.201618730648416,-0.9603840112686156,0.0922319963574409,-0.2274079918861389,0.6474999785423279,0.5425000190734863,-0.1749999970197677
13.221960207891327,-0.9584319591522216,0.0912560001015663,-0.2256999909877777,0.6825000047683716,0.4900000095367431,-0.262499988079071
13.242301685134237,-0.9596520066261292,0.0895479992032051,-0.2276519984006881,0.6825000047683716,0.5074999928474426,-0.2450000047683715
13.262643162377147,-0.9584319591522216,0.0914999991655349,-0.2283839881420135,0.7699999809265137,0.5774999856948853,-0.1574999988079071
13.282984639620057,-0.9589200019836426,0.0912560001015663,-0.2283839881420135,0.612500011920929,0.5600000023841858,-0.1400000005960464
13.303326116862968,-0.9601399898529052,0.0905239954590797,-0.2291159927845001,0.5249999761581421,0.5425000190734863,-0.1574999988079071
13.323667594105878,-0.9667279720306396,0.0922319963574409,-0.236191987991333,0.3499999940395355,0.3499999940395355,-0.1749999970197677
13.344009071348788,-0.9616039991378784,0.090279996395111,-0.2286279946565628,-0.4900000095367431,-0.262499988079071,-0.3675000071525574
13.364350548591698,-0.962336003780365,0.0905239954590797,-0.2298479974269867,-0.6474999785423279,0.0700000002980232,-0.1574999988079071
13.384692025834608,-0.9630680084228516,0.0888160020112991,-0.2300919890403747,-0.4375,0.1225000023841857,-0.0350000001490116
13.405033503077519,-0.9652639627456664,0.0944279953837394,-0.2274079918861389,-0.2975000143051147,-0.1924999952316284,-0.0700000002980232
13.425374980320429,-0.9684360027313232,0.0900359973311424,-0.2276519984006881,-0.9975000023841858,0.0525000020861625,-0.0700000002980232
13.44571645756334,-0.97599995136261,0.06734399497509,-0.2264319956302642,0.262499988079071,1.0325000286102295,0.1924999952316284
13.46605793480625,-0.9740479588508606,0.0553879998624324,-0.2254559993743896,4.8125,3.972500085830689,0.4724999964237213
13.48639941204916,-0.977463960647583,0.0514839999377727,-0.2369239926338195,10.86750030517578,10.167500495910645,1.347499966621399
13.50674088929207,-0.9659959673881532,0.0478239990770816,-0.2410719990730285,16.852500915527344,17.71000099182129,2.1875
13.52708236653498,-0.9803919792175292,0.1015039980411529,-0.2083759903907776,19.98500061035156,26.26749992370605,2.694999933242798
13.54742384377789,-1.0430999994277954,0.1259039938449859,-0.2854799926280975,16.170000076293945,35.157501220703125,3.7799999713897705
13.5677653210208,-1.1126400232315063,0.1495719999074936,-0.3394039869308471,13.09000015258789,32.567501068115234,3.2725000381469727
13.588106798263711,-1.0782359838485718,0.1661639958620071,-0.2718159854412079,6.054999828338623,27.002500534057617,2.572499990463257
13.608448275506621,-0.9928359985351562,0.1227319985628128,-0.2515639960765838,-2.450000047683716,25.934999465942383,3.4825000762939453
13.628789752749531,-0.973315954208374,0.0534359999001026,-0.2854799926280975,-2.5899999141693115,34.26499938964844,2.782500028610229
13.649131229992442,-0.9059720039367676,0.052216000854969,-0.3113439977169037,2.782500028610229,48.19499969482422,-2.065000057220459
13.669472707235352,-0.8127639889717102,0.0439199991524219,-0.3430639803409576,7.840000152587891,63.665000915527344,-14.787500381469728
13.689814184478262,-0.7773839831352234,0.1698240041732788,-0.3189080059528351,21.524999618530277,79.7300033569336,-29.34749984741211
13.710155661721172,-0.785923957824707,0.1232199966907501,-0.2967039942741394,3.745000123977661,89.40750122070312,-40.28499984741211
13.730497138964083,-0.9235399961471558,0.1908079981803894,-0.2847479879856109,13.772500038146973,88.16500091552734,-44.782501220703125
13.750838616206993,-0.981611967086792,0.2823079824447632,-0.2496119886636734,16.274999618530273,87.29000091552734,-39.79500198364258
13.771180093449903,-1.0169919729232788,0.2271640002727508,-0.4018679857254028,6.177500247955322,89.94999694824219,-37.59000015258789
13.791521570692813,-1.0587159395217896,0.244731992483139,-0.4938559830188751,4.375,77.31500244140625,-35.209999084472656
13.811863047935724,-1.0050359964370728,0.2830399870872497,-0.4567679762840271,-3.5350000858306885,65.01249694824219,-31.5
13.832204525178634,-0.9113399982452391,0.23887600004673,-0.4879999756813049,-17.815000534057617,60.72499847412109,-28.770000457763672
13.852546002421544,-0.8937720060348511,0.0973559990525245,-0.5780360102653503,-28.489999771118164,60.39250183105469,-29.08500099182129
13.872887479664454,-0.9311040043830872,0.0346480011940002,-0.6329360008239746,-21.6299991607666,64.12000274658203,-35.0
13.893228956907365,-0.935252010822296,0.0780799984931945,-0.7161399722099304,-11.917500495910645,65.04750061035156,-41.05500030517578
13.913570434150275,-0.8781560063362122,0.0919879972934722,-0.6941800117492676,-17.762500762939453,59.79750061035156,-43.01499938964844
13.933911911393185,-0.8064199686050415,0.0771040022373199,-0.6678279638290405,-28.280000686645508,55.790000915527344,-39.44499969482422
13.954253388636095,-0.7976359724998474,-0.1293199956417083,-0.826915979385376,-33.31999969482422,53.68999862670898,-33.022499084472656
13.974594865879006,-0.7410280108451843,-0.1166319996118545,-0.7715280055999756,-19.02250099182129,50.2599983215332,-34.58000183105469
13.994936343121916,-0.7058919668197632,-0.0822279974818229,-0.7637199759483337,-8.119999885559082,48.807498931884766,-34.86000061035156
14.015277820364826,-0.6995480060577393,-0.0287919994443655,-0.8327719569206238,2.432500123977661,51.869998931884766,-36.3125
14.035619297607736,-0.6797839999198914,-0.0046359999105334,-0.8718119859695435,10.43000030517578,54.407501220703125,-39.77750015258789
14.055960774850647,-0.6588000059127808,0.0275719985365867,-0.8396039605140686,12.442500114440918,47.28499984741211,-40.25
14.076302252093557,-0.709551990032196,-0.0180559996515512,-0.8444839715957642,10.447500228881836,42.29750061035156,-37.625
14.096643729336467,-0.7129679918289185,-0.0253759995102882,-0.8591240048408508,14.052499771118164,38.692501068115234,-35.85750198364258
14.116985206579377,-0.6727079749107361,-0.0048799999058246,-0.8586359620094299,16.100000381469727,37.02999877929688,-35.087501525878906
14.137326683822288,-0.6185399889945984,0.0080519998446106,-0.826915979385376,17.797500610351562,34.49250030517578,-34.52750015258789
14.157668161065198,-0.5870639681816101,0.0390399992465972,-0.8410679697990417,19.915000915527344,33.127498626708984,-35.0525016784668
14.178009638308108,-0.5892599821090698,0.0524599999189376,-0.8569279909133911,19.530000686645508,32.252498626708984,-35.4375
14.198351115551018,-0.6065840125083923,0.0412359982728958,-0.8574159741401672,19.21500015258789,32.54999923706055,-36.15499877929688
14.218692592793928,-0.6070719957351685,0.0219599995762109,-0.8547319769859314,21.700000762939453,31.21999931335449,-37.432498931884766
14.239034070036839,-0.5941399931907654,0.0312319993972778,-0.8661999702453613,25.217500686645508,27.57999992370605,-39.060001373291016
14.259375547279749,-0.6090239882469177,0.0819839984178543,-0.8803519606590271,30.309999465942383,23.362499237060547,-42.997501373291016
14.27971702452266,-0.6392799615859985,0.13298000395298,-0.8666880130767822,32.34000015258789,15.81999969482422,-46.11249923706055
14.30005850176557,-0.5970680117607117,0.1700679957866668,-0.7502999901771545,26.72249984741211,7.034999847412109,-46.130001068115234
14.32039997900848,-0.5670560002326965,0.1083360016345977,-0.6588000059127808,12.425000190734863,2.712500095367432,-42.50749969482422
14.34074145625139,-0.4621360003948211,-0.023667998611927,-0.6168320178985596,-2.782500028610229,0.6474999785423279,-37.397499084472656
14.3610829334943,-0.4545719921588897,-0.0739319995045661,-0.5990200042724609,-4.847499847412109,-1.837499976158142,-35.36750030517578
14.38142441073721,-0.5289919972419739,-0.1542080044746399,-0.6265919804573059,-7.227499961853027,-5.880000114440918,-32.84749984741211
14.40176588798012,-0.5116679668426514,-0.2337519973516464,-0.6219559907913208,-10.447500228881836,-13.072500228881836,-28.174999237060547
14.422107365223031,-0.5755959749221802,-0.236191987991333,-0.5363119840621948,-9.55500030517578,-19.792499542236328,-24.21999931335449
14.442448842465941,-0.5585159659385681,-0.2466839998960495,-0.644648015499115,-5.827499866485596,-22.364999771118164,-22.837499618530277
14.462790319708851,-0.5258200168609619,-0.3054879903793335,-0.6578239798545837,-3.797500133514404,-26.63500022888184,-15.487500190734863
14.483131796951762,-0.6131719946861267,-0.3640480041503906,-0.6102439761161804,-1.3125,-34.790000915527344,-11.40999984741211
14.503473274194672,-0.5380200147628784,-0.4413959980010986,-0.6121959686279297,4.09499979019165,-38.84999847412109,-15.855000495910645
14.523814751437582,-0.4599399864673614,-0.4611600041389465,-0.6497719883918762,19.337499618530277,-35.80500030517578,-20.107500076293945
14.544156228680492,-0.4128479957580566,-0.4731159806251526,-0.6563599705696106,33.38999938964844,-29.295000076293945,-27.14249992370605
14.564497705923403,-0.4116279780864715,-0.5187439918518066,-0.6178079843521118,59.08000183105469,-19.232500076293945,-39.23500061035156
14.584839183166313,-0.3821039795875549,-0.6178079843521118,-0.5199639797210693,61.775001525878906,-19.424999237060547,-41.05500030517578
14.605180660409223,-0.3901560008525848,-0.6539199948310852,-0.5292360186576843,57.435001373291016,-19.040000915527344,-40.775001525878906
14.625522137652133,-0.4216319918632507,-0.669048011302948,-0.5397279858589172,50.45249938964844,-18.899999618530277,-41.54500198364258
14.645863614895044,-0.4221200048923492,-0.7093079686164856,-0.5746200084686279,45.77999877929688,-15.137499809265137,-43.61000061035156
14.666205092137954,-0.4296839833259582,-0.7036960124969482,-0.5895040035247803,41.43999862670898,-10.1850004196167,-51.25749969482422
14.686546569380864,-0.4931239783763885,-0.642695963382721,-0.5770599842071533,37.08250045776367,-6.28249979019165,-56.962501525878906
14.706888046623774,-0.4882439970970154,-0.6846640110015869,-0.619271993637085,28.630001068115234,-0.1225000023841857,-56.82250213623047
14.727229523866685,-0.4665279984474182,-0.6946679949760437,-0.6517239809036255,28.40250015258789,9.99250030517578,-53.68999862670898
14.747571001109595,-0.4662839770317077,-0.6202479600906372,-0.607804000377655,30.55500030517578,21.979999542236328,-48.43999862670898
14.767912478352505,-0.4755559861660003,-0.5321639776229858,-0.6231759786605835,28.559999465942383,30.450000762939453,-38.5525016784668
14.788253955595415,-0.4682359993457794,-0.4731159806251526,-0.6097559928894043,23.239999771118164,35.4900016784668,-26.354999542236328
14.808595432838326,-0.4897079765796661,-0.4621360003948211,-0.6214680075645447,18.1825008392334,34.125,-15.34749984741211
14.828936910081236,-0.4316360056400299,-0.4550600051879883,-0.6190279722213745,17.639999389648438,30.537500381469727,-9.69499969482422
14.849278387324146,-0.3821039795875549,-0.4923920035362243,-0.6675840020179749,16.905000686645508,31.920000076293945,-10.149999618530272
14.869619864567056,-0.4418839812278747,-0.4701879918575287,-0.6204919815063477,22.102500915527344,38.34249877929688,-15.78499984741211
14.889961341809967,-0.4862920045852661,-0.4899519979953766,-0.6080479621887207,22.32999992370605,49.89250183105469,-23.975000381469727
14.910302819052877,-0.4533520042896271,-0.4760439991950989,-0.640500009059906,23.677499771118164,66.5,-30.32749938964844
14.930644296295787,-0.3437959849834442,-0.4472520053386688,-0.5965799689292908,18.934999465942383,69.77249908447266,-29.295000076293945
14.950985773538697,-0.2871879935264587,-0.5468040108680725,-0.6348879933357239,12.494999885559082,73.74500274658203,-25.5674991607666
14.971327250781608,-0.2657159864902496,-0.6117079854011536,-0.6641680002212524,16.99250030517578,82.52999877929688,-22.540000915527344
14.991668728024518,-0.2871879935264587,-0.636352002620697,-0.6429399847984314,25.67250061035156,93.1875,-21.104999542236328
15.012010205267428,-0.2100839912891388,-0.6927160024642944,-0.5236240029335022,29.049999237060547,96.73999786376952,-20.49250030517578
15.032351682510338,-0.1556719988584518,-0.8213039636611938,-0.5550999641418457,35.10499954223633,85.95999908447266,-20.020000457763672
15.052693159753249,-0.1783639937639236,-0.8896239995956421,-0.578279972076416,46.77750015258789,77.22750091552734,-26.0575008392334
15.073034636996159,-0.2862119972705841,-0.8586359620094299,-0.6629480123519897,48.5625,88.09500122070312,-31.114999771118164
15.093376114239069,-0.3906439840793609,-0.9794159531593324,-0.8935279846191406,46.060001373291016,87.11499786376953,-22.5575008392334
15.11371759148198,-0.3525799810886383,-0.9569680094718932,-0.745419979095459,51.90499877929688,83.10749816894531,-12.8100004196167
15.13405906872489,-0.3545320034027099,-0.9045079946517944,-0.7461519837379456,49.01750183105469,85.6624984741211,-1.2599999904632568
15.1544005459678,-0.3752720057964325,-0.928663969039917,-0.7603039741516113,45.83250045776367,70.69999694824219,11.427499771118164
15.17474202321071,-0.2657159864902496,-0.8569279909133911,-0.8898679614067078,41.66749954223633,33.95000076293945,22.34749984741211
15.19508350045362,-0.220331996679306,-0.7812879681587219,-0.8915759921073914,40.23250198364258,17.342500686645508,19.98500061035156
15.21542497769653,-0.0751519948244094,-0.6985719799995422,-0.7632319927215576,36.20750045776367,11.619999885559082,12.75749969482422
15.23576645493944,-0.0121999997645616,-0.6505039930343628,-0.7581079602241516,31.65749931335449,15.662500381469728,3.3424999713897705
15.256107932182351,-0.0124439997598528,-0.7166280150413513,-0.806663990020752,20.299999237060547,23.520000457763672,-1.9424999952316284
15.276449409425261,-0.100283995270729,-0.8271600008010864,-0.8754720091819763,20.3174991607666,31.7450008392334,-2.012500047683716
15.296790886668171,-0.1097999960184097,-0.7349280118942261,-0.9425719976425172,39.4275016784668,31.342500686645508,-4.007500171661377
15.317132363911082,-0.0973559990525245,-0.5236240029335022,-0.8442400097846985,44.06499862670898,24.20249938964844,-8.574999809265137
15.337473841153992,-0.142984002828598,-0.4460319876670837,-0.6751480102539062,18.32250022888184,17.587499618530273,-8.907500267028809
15.357815318396902,-0.2737680077552795,-0.5016639828681946,-0.6466000080108643,-18.479999542236328,5.09250020980835,-2.414999961853028
15.378156795639812,-0.4023559987545013,-0.4635999798774719,-0.6761239767074585,-45.622501373291016,-6.877500057220459,9.677499771118164
15.398498272882723,-0.4316360056400299,-0.5355799794197083,-0.6819800138473511,-70.94499969482422,-21.57749938964844,13.230000495910645
15.418839750125633,-0.4067479968070984,-0.6522119641304016,-0.7922679781913757,-78.71500396728516,-29.90749931335449,14.875
15.439181227368543,-0.3030479848384857,-0.8166679739952087,-0.9259799718856812,-74.97000122070312,-32.165000915527344,11.619999885559082
15.459522704611453,-0.3286679983139038,-0.8012959957122803,-0.9220759868621826,-59.0625,-29.81999969482422,14.612500190734863
15.479864181854364,-0.403331995010376,-0.676367998123169,-0.8964560031890869,-43.61000061035156,-28.38500022888184,18.84749984741211
15.500205659097274,-0.3869839906692505,-0.6048759818077087,-0.8525359630584717,-17.850000381469727,-11.40999984741211,14.140000343322754
15.520547136340184,-0.284991979598999,-0.4794600009918213,-0.9120720028877258,-12.18000030517578,-8.925000190734863,0.0175000000745058
15.540888613583094,-0.2544919848442077,-0.4540839791297912,-0.7937319874763489,-13.614999771118164,-14.052499771118164,2.275000095367432
15.561230090826005,-0.3054879903793335,-0.4787279963493347,-0.8166679739952087,-20.982500076293945,-11.287500381469728,7.752500057220459
15.581571568068915,-0.3403799831867218,-0.4701879918575287,-0.8827919960021973,-25.024999618530277,-17.53499984741211,17.02750015258789
15.601913045311825,-0.3284240067005157,-0.3430639803409576,-0.8308199644088745,-17.43000030517578,-13.457500457763672,18.39249992370605
15.622254522554735,-0.2466839998960495,-0.3372080028057098,-0.7905600070953369,-16.25749969482422,-2.9574999809265137,20.14249992370605
15.642595999797646,-0.2000799924135208,-0.4001599848270416,-0.7239480018615723,-24.377500534057617,-2.0999999046325684,21.857500076293945
15.662937477040556,-0.2281399965286255,-0.4767760038375854,-0.7654280066490173,-28.559999465942383,-8.6274995803833,22.24250030517578
15.683278954283466,-0.234484001994133,-0.5921880006790161,-0.8586359620094299,-23.39750099182129,-1.837499976158142,15.890000343322754
15.703620431526376,-0.1869039982557296,-0.708575963973999,-0.929639995098114,-11.427499771118164,12.25,4.164999961853027
15.723961908769287,-0.099551998078823,-0.8069080114364624,-0.9601399898529052,5.494999885559082,37.22249984741211,-5.53000020980835
15.744303386012197,-0.2400960028171539,-0.932811975479126,-0.8557080030441284,33.932498931884766,64.99500274658203,-16.8700008392334
15.764644863255107,-0.2027639895677566,-0.9186599850654602,-0.6485520005226135,62.317501068115234,72.69499969482422,-31.21999931335449
15.784986340498017,-0.0204959996044635,-0.8774240016937256,-0.5777919888496399,76.24749755859375,53.63750076293945,-35.349998474121094
15.805327817740928,-0.0497759990394115,-0.8527799844741821,-0.6090239882469177,72.80000305175781,35.89250183105469,-26.38999938964844
15.825669294983838,-0.0631959959864616,-0.933788001537323,-0.5572959780693054,59.9375,19.6875,-19.862499237060547
15.846010772226748,-0.1556719988584518,-1.0794559717178345,-0.5380200147628784,44.97499847412109,12.845000267028809,-15.925000190734863
15.866352249469658,-0.1246839985251426,-1.1599760055541992,-0.5648599863052368,39.00749969482422,8.75,-12.092499732971191
15.886693726712569,-0.0297679994255304,-1.2314679622650146,-0.594871997833252,44.53749847412109,7.699999809265137,-13.755000114440918
15.907035203955479,-0.0134199997410178,-1.1233760118484497,-0.5807200074195862,58.65999984741211,9.22249984741211,-13.859999656677246
15.927376681198389,-0.0117119997739791,-1.1121519804000854,-0.5241119861602783,68.86250305175781,13.649999618530272,-13.720000267028809
15.9477181584413,-0.0251320004463195,-1.035048007965088,-0.4950760006904602,62.52750015258789,20.842500686645508,-10.920000076293944
15.96805963568421,-0.0634399950504303,-1.113371968269348,-0.5150839686393738,59.32500076293945,21.315000534057617,-14.175000190734863
15.98840111292712,-0.0849120020866394,-1.0823839902877808,-0.476531982421875,67.4625015258789,12.074999809265137,-15.994999885559082
16.00874259017003,-0.0051239999011158,-0.9013359546661376,-0.3752720057964325,79.83499908447266,6.615000247955322,-25.1299991607666
16.02908406741294,0.0261080004274845,-0.9230519533157348,-0.3164680004119873,78.47000122070312,-2.625,-21.03499984741211
16.049425544655847,0.0502640008926391,-0.9237839579582214,-0.2171600013971328,77.4375,-10.517499923706056,-12.407500267028809
16.069767021898755,0.0280600003898143,-0.87254399061203,-0.2054480016231537,73.48249816894531,-16.4325008392334,-5.617499828338623
16.090108499141664,0.0024399999529123,-0.8625400066375732,-0.1761679947376251,70.84000396728516,-16.764999389648438,-6.492499828338623
16.110449976384572,-0.0246439985930919,-0.8759599924087524,-0.1783639937639236,65.50250244140625,-18.042499542236328,-8.119999885559082
16.13079145362748,0.0780799984931945,-0.8903560042381287,-0.1407880038022995,54.14500045776367,-19.127500534057617,-7.420000076293945
16.15113293087039,0.0968680009245872,-0.9325679540634156,-0.1559159904718399,46.602500915527344,-14.752500534057615,-6.317500114440918
16.171474408113298,0.0461159981787204,-0.973315954208374,-0.1910519897937774,44.11750030517578,-16.327499389648438,-5.337500095367432
16.191815885356206,0.0239119995385408,-0.9637999534606934,-0.1903200000524521,46.35750198364258,-13.859999656677246,-7.787499904632568
16.212157362599115,0.003171999938786,-0.9535520076751708,-0.1861719936132431,45.83250045776367,-7.4375,-12.477499961853027
16.232498839842023,-0.0048799999058246,-0.9454999566078186,-0.1812919974327087,43.872501373291016,-4.777500152587891,-14.262499809265137
16.25284031708493,0.0097599998116493,-0.9035319685935974,-0.1617719978094101,43.29500198364258,-2.6600000858306885,-13.317500114440918
16.27318179432784,0.0241560004651546,-0.9018239974975586,-0.1576239913702011,38.255001068115234,-0.1050000041723251,-11.725000381469728
16.29352327157075,0.0229359995573759,-0.9062159657478333,-0.143227994441986,34.650001525878906,0.3849999904632568,-11.182499885559082
16.313864748813657,0.0112239997833967,-0.912559986114502,-0.1193159967660904,34.19499969482422,3.867500066757202,-13.5625
16.334206226056565,0.0239119995385408,-0.9006040096282959,-0.1124840006232261,37.64250183105469,5.827499866485596,-15.8725004196167
16.354547703299474,0.0380639992654323,-0.8888919949531555,-0.1241960003972053,40.040000915527344,6.755000114440918,-16.502500534057617
16.374889180542382,0.0507519990205764,-0.8142279982566833,-0.1390800029039383,45.657501220703125,11.112500190734863,-17.9375
16.39523065778529,0.047580000013113,-0.7710399627685547,-0.119559995830059,47.845001220703125,12.72249984741211,-19.26749992370605
16.4155721350282,0.0385520011186599,-0.7395640015602112,-0.1305399984121322,47.58250045776367,12.949999809265137,-17.727500915527344
16.435913612271108,0.0407480001449584,-0.7327319979667664,-0.1283439993858337,44.22249984741211,11.182499885559082,-12.75749969482422
16.456255089514016,0.0597799979150295,-0.7554239630699158,-0.1693359911441803,39.40999984741211,11.322500228881836,-9.170000076293944
16.476596566756925,0.0595359988510608,-0.7837280035018921,-0.2115480005741119,38.307498931884766,10.552499771118164,-8.819999694824219
16.496938043999833,0.0544119998812675,-0.7915359735488892,-0.2181359976530075,38.60499954223633,7.507500171661377,-7.787499904632568
16.51727952124274,0.0458719991147518,-0.8115440011024475,-0.2115480005741119,34.96500015258789,5.722499847412109,-4.164999961853027
16.53762099848565,0.0190319996327161,-0.8627839684486389,-0.2354599982500076,28.45499992370605,5.442500114440918,0.0525000020861625
16.55796247572856,-0.0053679998964071,-0.9289079904556274,-0.2332639992237091,25.76000022888184,4.567500114440918,1.0674999952316284
16.578303952971467,0.0143959997221827,-0.9542839527130128,-0.1954440027475357,26.70499992370605,2.922499895095825,-0.3675000071525574
16.598645430214376,-0.0036599999293684,-0.970143973827362,-0.1883679926395416,27.387500762939453,-0.5774999856948853,-0.7524999976158142
16.618986907457284,-0.0100039998069405,-0.961847960948944,-0.1320039927959442,28.752500534057617,-4.8125,-2.2225000858306885
16.639328384700192,0.0036599999293684,-0.9603840112686156,-0.0768599957227706,26.61750030517578,-9.380000114440918,-3.3949999809265137
16.6596698619431,0.0178119987249374,-0.9840520024299622,-0.0644159987568855,22.417499542236328,-13.387499809265137,-3.0450000762939453
16.68001133918601,0.0480679981410503,-1.020408034324646,-0.047335997223854,21.50749969482422,-15.207500457763672,-2.345000028610229
16.700352816428918,0.0617319978773593,-1.014307975769043,-0.0109799997881054,24.21999931335449,-15.68000030517578,-2.380000114440918
16.720694293671826,0.090279996395111,-1.0033279657363892,-0.0265959985554218,24.2549991607666,-14.892499923706056,-3.009999990463257
16.741035770914735,0.1334680020809173,-0.9964959621429444,-0.0346480011940002,22.26000022888184,-12.1274995803833,-2.9749999046325684
16.761377248157643,0.1363959908485412,-1.0223599672317505,-0.0190319996327161,20.42250061035156,-8.767499923706055,-3.009999990463257
16.78171872540055,0.0734440013766288,-0.9735599756240844,-0.0073199998587369,22.399999618530277,-8.382499694824219,-3.9375
16.80206020264346,0.0231800004839897,-0.9437919855117798,-0.002195999957621,19.63500022888184,-10.202500343322754,-4.199999809265137
16.82240167988637,-0.0058559998869895,-0.9720959663391112,0.0134199997410178,15.890000343322754,-12.005000114440918,-3.902499914169312
16.842743157129277,-0.0009759999811649,-0.9267119765281676,-0.0073199998587369,16.8174991607666,-12.65250015258789,-4.585000038146973
16.863084634372186,0.0073199998587369,-0.93232399225235,-0.0131759997457265,14.542500495910645,-12.65250015258789,-2.677500009536743
16.883426111615094,0.0351359993219375,-0.9398880004882812,-0.0073199998587369,12.635000228881836,-12.932499885559082,-1.2949999570846558
16.903767588858003,0.0588039979338645,-0.9189040064811708,0.0148839997127652,11.375,-10.3774995803833,-0.9100000262260436
16.92410906610091,0.0741759985685348,-0.9445239901542664,0.0624639987945556,6.527500152587891,-9.029999732971191,-0.1749999970197677
16.94445054334382,0.1122400015592575,-0.990884006023407,0.0717360004782676,3.569999933242798,-7.454999923706055,1.2949999570846558
16.964792020586728,0.1149239987134933,-1.0509079694747925,0.0785679966211319,1.7675000429153442,-4.287499904632568,4.025000095367432
16.985133497829636,0.0817399993538856,-1.08189594745636,0.0846679955720901,6.422500133514404,0.9800000190734864,-0.9100000262260436
17.005474975072545,0.0812520012259483,-1.0052800178527832,0.0963799953460693,13.09000015258789,3.0450000762939453,-4.829999923706055
17.025816452315453,0.0905239954590797,-0.9684360027313232,0.0949160009622573,13.19499969482422,5.652500152587891,-5.162499904632568
17.046157929558362,0.0827159956097602,-0.9842959642410278,0.0773480013012886,8.732500076293945,8.942500114440918,-4.707499980926514
17.06649940680127,0.057583998888731,-0.9769759774208068,0.0741759985685348,8.260000228881836,10.56999969482422,-6.667500019073486
17.08684088404418,0.0644159987568855,-0.9230519533157348,0.0446520000696182,11.199999809265137,10.605000495910645,-8.855000495910645
17.107182361287087,0.0275719985365867,-0.9396439790725708,0.0558759979903698,8.207500457763672,10.850000381469728,-8.015000343322754
17.127523838529996,0.0422119982540607,-1.136795997619629,0.0580720007419586,-2.6075000762939453,7.454999923706055,-5.880000114440918
17.147865315772904,0.0417240001261234,-1.2200000286102295,0.0868639945983886,4.462500095367432,6.492499828338623,-7.804999828338623
17.168206793015813,0.0680759996175766,-1.1267919540405271,0.0614879988133907,21.01749992370605,2.2225000858306885,-9.975000381469728
17.18854827025872,0.0573399998247623,-0.9142679572105408,0.0736880004405975,30.292499542236328,4.21750020980835,-10.114999771118164
17.20888974750163,0.0985759943723678,-0.8449719548225403,0.0683199986815452,19.11000061035156,3.990000009536743,-7.682499885559082
17.229231224744538,0.0695400014519691,-0.8805959820747375,0.0895479992032051,6.387499809265137,7.192500114440918,-1.8025000095367432
17.249572701987447,0.085156001150608,-0.9440360069274902,0.100283995270729,-2.2225000858306885,7.997499942779541,1.190000057220459
17.269914179230355,0.0990639999508857,-0.9803919792175292,0.0895479992032051,-6.28249979019165,10.395000457763672,2.555000066757202
17.290255656473263,0.0917439982295036,-1.0140639543533323,0.0768599957227706,-7.559999942779541,12.21500015258789,3.7799999713897705
17.310597133716172,0.06734399497509,-0.9799039959907532,0.0644159987568855,-4.462500095367432,14.192500114440918,3.5174999237060547
17.33093861095908,0.0497759990394115,-1.007475972175598,0.0366000011563301,-6.615000247955322,15.557499885559082,3.2725000381469727
17.35128008820199,0.0495319999754428,-1.02211594581604,0.0241560004651546,-5.635000228881836,16.22249984741211,2.065000057220459
17.371621565444897,0.0436760000884532,-1.0047919750213623,0.0278159994632005,-4.235000133514404,15.942500114440918,1.3125
17.391963042687806,0.0256199985742568,-0.9991799592971802,0.0285479985177516,-3.237499952316284,14.892499923706056,0.6825000047683716
17.412304519930714,0.0146399997174739,-0.9862479567527772,0.0280600003898143,-0.8224999904632568,12.949999809265137,0.5950000286102295
17.432645997173623,0.0243999995291233,-1.0150399208068848,0.0070759998634457,-0.9449999928474426,10.692500114440918,0.3675000071525574
17.45298747441653,0.0217159986495971,-1.000643968582153,0.0273279994726181,-0.1749999970197677,8.732500076293945,-0.7524999976158142
17.47332895165944,0.009515999816358,-0.9923479557037354,0.0224479995667934,-0.4375,6.300000190734863,-0.5950000286102295
17.493670428902348,0.0185439996421337,-1.0011320114135742,0.018300000578165,-2.1524999141693115,2.887500047683716,-0.4724999964237213
17.514011906145257,0.0256199985742568,-1.0118680000305176,0.0219599995762109,-2.0999999046325684,-0.5600000023841858,-0.2975000143051147
17.534353383388165,0.0314759984612464,-1.007475972175598,0.0307439994066953,-1.1549999713897705,-3.640000104904175,-0.2100000083446502
17.554694860631074,0.0436760000884532,-1.0069879293441772,0.0407480001449584,-0.4724999964237213,-6.387499809265137,0.3149999976158142
17.575036337873982,0.0331839993596077,-1.000643968582153,0.0292799994349479,0.1574999988079071,-8.102499961853027,0.8924999833106995
17.59537781511689,0.0597799979150295,-1.001863956451416,0.0397720001637935,1.0850000381469729,-9.852499961853027,0.5774999856948853
17.6157192923598,0.0546559989452362,-1.007475972175598,0.0375759974122047,1.0149999856948853,-10.272500038146973,0.6825000047683716
17.636060769602707,0.0580720007419586,-1.0091840028762815,0.0153719997033476,1.5575000047683716,-10.657500267028809,0.5774999856948853
17.656402246845616,0.05197199806571,-1.0128439664840698,0.033671997487545,4.130000114440918,-11.899999618530272,-0.2450000047683715
17.676743724088524,0.0553879998624324,-0.9757559895515442,0.056607998907566,6.230000019073486,-12.267499923706056,-0.3675000071525574
17.697085201331433,0.0444080010056495,-1.0033279657363892,0.0453839972615242,3.447499990463257,-13.352499961853027,0.5249999761581421
17.71742667857434,0.056607998907566,-0.9896639585494996,0.0644159987568855,2.992500066757202,-13.982500076293944,1.0325000286102295
17.73776815581725,0.0785679966211319,-0.9962520003318788,0.06734399497509,1.3825000524520874,-14.210000038146973,1.4524999856948853
17.758109633060158,0.0954039990901947,-0.9921039938926696,0.0717360004782676,1.1549999713897705,-12.65250015258789,1.5399999618530271
17.778451110303067,0.1112639978528022,-0.986735999584198,0.0795440003275871,0.4724999964237213,-10.09749984741211,1.399999976158142
17.798792587545975,0.1185839995741844,-0.9830759763717652,0.0810080021619796,-0.7175000309944153,-7.087500095367432,1.347499966621399
17.819134064788884,0.1149239987134933,-0.986735999584198,0.0812520012259483,-2.484999895095825,-4.550000190734863,1.4350000619888306
17.839475542031792,0.1097999960184097,-1.0047919750213623,0.0793000012636184,-3.307500123977661,-2.450000047683716,1.6100000143051147
17.8598170192747,0.0880839973688125,-0.990884006023407,0.0827159956097602,-1.9600000381469729,0.2275000065565109,1.5575000047683716
17.88015849651761,0.0783239975571632,-0.9994239807128906,0.0771040022373199,-2.1875,0.8924999833106995,1.627500057220459
17.900499973760517,0.0685639977455139,-1.0011320114135742,0.0719799995422363,-1.7324999570846558,1.4350000619888306,1.4700000286102295
17.920841451003426,0.0614879988133907,-0.995519995689392,0.0839359983801841,-1.2424999475479126,1.8550000190734863,1.4175000190734863
17.941182928246334,0.0514839999377727,-0.9952759742736816,0.0719799995422363,-0.5074999928474426,1.9075000286102293,1.3650000095367432
17.961524405489243,0.0514839999377727,-0.9923479557037354,0.0810080021619796,-0.5950000286102295,1.3650000095367432,1.4524999856948853
17.98186588273215,0.05197199806571,-0.9886879920959472,0.0827159956097602,-0.6299999952316284,0.1924999952316284,1.627500057220459
18.00220735997506,0.047580000013113,-1.000643968582153,0.0722239986062049,-2.0299999713897705,-0.0874999985098838,1.6974999904632568
18.02254883721797,0.05197199806571,-0.9967399835586548,0.0692960023880004,-1.6100000143051147,-0.3849999904632568,1.715000033378601
18.042890314460877,0.0514839999377727,-1.0001559257507324,0.065880000591278,-1.7324999570846558,-0.4375,1.715000033378601
18.063231791703785,0.0573399998247623,-0.9974719882011414,0.0634399950504303,-1.4350000619888306,-0.2100000083446502,1.5750000476837158
18.083573268946694,0.0563639998435974,-0.9916160106658936,0.0629519969224929,-1.680000066757202,0.1749999970197677,1.5225000381469729
18.103914746189602,0.0561200007796287,-0.9967399835586548,0.0583159998059272,-2.572499990463257,0.5249999761581421,1.680000066757202
18.12425622343251,0.0578279979526996,-0.9974719882011414,0.0583159998059272,-3.0450000762939453,1.2074999809265137,1.6100000143051147
18.14459770067542,0.0607559978961944,-0.9974719882011414,0.0573399998247623,-3.4825000762939453,1.9075000286102293,1.2599999904632568
18.164939177918328,0.0592919997870922,-0.998203992843628,0.0578279979526996,-3.674999952316284,2.414999961853028,0.962499976158142
18.185280655161236,0.0517279990017414,-1.0011320114135742,0.056607998907566,-3.4825000762939453,2.5899999141693115,0.5774999856948853
18.205622132404145,0.0507519990205764,-0.998691976070404,0.0563639998435974,-3.0975000858306885,2.012500047683716,0.5425000190734863
18.225963609647053,0.052947998046875,-0.9960079789161682,0.0585599988698959,-2.7300000190734863,1.3825000524520874,0.612500011920929
18.24630508688996,0.0541680008172988,-0.9962520003318788,0.0595359988510608,-2.572499990463257,0.6825000047683716,0.699999988079071
18.26664656413287,0.0541680008172988,-0.995519995689392,0.0597799979150295,-2.432500123977661,-0.0525000020861625,0.8050000071525574
