Time (seconds),acc_x,acc_y,acc_z,gyro_x,gyro_y,gyro_z
0.020213108372465923,-0.1005280017852783,-0.9555040001869202,-0.0168359987437725,-2.922499895095825,-5.197500228881836,4.497499942779541
0.040426216744931846,-0.061243999749422,-0.9681919813156128,-0.0100039998069405,-3.0625,-3.0274999141693115,2.502500057220459
0.060639325117397766,-0.0322079993784427,-0.9862479567527772,-0.0239119995385408,-2.852499961853028,1.4700000286102295,1.0850000381469729
0.08085243348986369,-0.0112239997833967,-1.0086959600448608,-0.0190319996327161,-2.6424999237060547,6.387499809265137,0.2100000083446502
0.10106554186232962,0.0017079999670386,-1.017967939376831,-0.0121999997645616,-0.9800000190734864,12.3725004196167,-0.0175000000745058
0.12127865023479555,0.0007319999858736,-0.9781959652900696,-0.023667998611927,4.112500190734863,24.149999618530277,0.0350000001490116
0.14149175860726146,-0.0085399998351931,-0.957211971282959,-0.0253759995102882,3.7100000381469727,28.979999542236328,-0.0874999985098838
0.16170486697972739,-0.0322079993784427,-0.9511119723320008,-0.0268399994820356,0.9275000095367432,34.14250183105469,-0.4200000166893005
0.1819179753521933,-0.0712479948997497,-0.9769759774208068,-0.0322079993784427,-2.799999952316284,39.11249923706055,-0.3499999940395355
0.20213108372465924,-0.1176079958677291,-1.0067440271377563,-0.0517279990017414,-4.96999979019165,42.13999938964844,0.3149999976158142
0.22234419209712517,-0.147376000881195,-1.0328519344329834,-0.061243999749422,-5.25,42.192501068115234,1.6974999904632568
0.2425573004695911,-0.1556719988584518,-1.0435879230499268,-0.0470919981598854,-3.7799999713897705,39.70750045776367,3.867500066757202
0.262770408842057,-0.152988001704216,-1.0191879272460938,-0.038307998329401,-0.5074999928474426,36.92499923706055,5.512499809265137
0.2829835172145229,-0.1539639979600906,-0.977952003479004,-0.0568519979715347,1.7675000429153442,35.0,4.585000038146973
0.30319662558698884,-0.1512800008058548,-0.9579439759254456,-0.0780799984931945,0.7350000143051147,32.217498779296875,2.2925000190734863
0.32340973395945477,-0.1490840017795562,-0.9601399898529052,-0.0836919993162155,-0.6474999785423279,30.239999771118164,-0.262499988079071
0.3436228423319207,-0.1483519971370697,-0.9901520013809204,-0.0727119967341423,-3.3949999809265137,28.45499992370605,-2.1700000762939453
0.3638359507043866,-0.152988001704216,-1.0140639543533323,-0.0607559978961944,-2.782500028610229,28.052499771118164,-1.4524999856948853
0.38404905907685255,-0.1678719967603683,-1.0125999450683594,-0.0583159998059272,-0.699999988079071,27.05500030517578,0.0525000020861625
0.4042621674493185,-0.1849519908428192,-0.9962520003318788,-0.0505079999566078,2.257499933242798,21.700000762939453,3.815000057220459
0.4244752758217844,-0.1678719967603683,-0.9847840070724488,-0.0578279979526996,2.9749999046325684,19.0049991607666,5.442500114440918
0.44468838419425033,-0.1568920016288757,-0.9745360016822816,-0.0636840015649795,2.5374999046325684,16.59000015258789,5.722499847412109
0.46490149256671626,-0.157379999756813,-0.9703879952430724,-0.0597799979150295,0.6825000047683716,14.017499923706056,4.480000019073486
0.4851146009391822,-0.1729959994554519,-0.97599995136261,-0.0478239990770816,-1.4874999523162842,11.112500190734863,2.3975000381469727
0.505327709311648,-0.1910519897937774,-0.9845399856567384,-0.038307998329401,-2.484999895095825,7.244999885559082,0.5600000023841858
0.525540817684114,-0.2105719894170761,-0.9877119660377502,-0.0402599982917308,-2.502500057220459,3.9375,-0.6825000047683716
0.5457539260565799,-0.2122799903154373,-0.9928359985351562,-0.0363559983670711,-1.8899999856948853,-0.0350000001490116,-1.8025000095367432
0.5659670344290458,-0.2044719904661178,-0.9933239817619324,-0.0304999984800815,-0.9275000095367432,-3.7274999618530273,-2.275000095367432
0.5861801428015118,-0.191783994436264,-0.993079960346222,-0.0317199975252151,-0.2975000143051147,-7.875,-2.6075000762939453
0.6063932511739777,-0.1720200031995773,-0.9911279678344728,-0.0402599982917308,-0.6650000214576721,-11.199999809265137,-3.115000009536743
0.6266063595464436,-0.1490840017795562,-0.994055986404419,-0.046604000031948,-1.4874999523162842,-13.579999923706056,-3.202500104904175
0.6468194679189095,-0.1261480003595352,-0.9977160096168518,-0.0507519990205764,-1.680000066757202,-15.085000038146973,-3.237499952316284
0.6670325762913755,-0.1110199987888336,-0.9950319528579712,-0.0509959980845451,-1.5225000381469729,-15.68000030517578,-3.377500057220459
0.6872456846638414,-0.0968680009245872,-0.9952759742736816,-0.0534359999001026,-1.1549999713897705,-15.119999885559082,-3.237499952316284
0.7074587930363073,-0.0895479992032051,-0.9969840049743652,-0.0495319999754428,-0.4375,-13.859999656677246,-2.694999933242798
0.7276719014087732,-0.0854000002145767,-1.001863956451416,-0.0485559999942779,-0.6650000214576721,-12.074999809265137,-1.8550000190734863
0.7478850097812392,-0.085887998342514,-1.0028399229049685,-0.0485559999942779,-1.1024999618530271,-10.045000076293944,-0.6474999785423279
0.7680981181537051,-0.0883279964327812,-1.0033279657363892,-0.0585599988698959,-1.662500023841858,-8.050000190734863,0.4375
0.788311226526171,-0.0863759964704513,-1.000643968582153,-0.0646599978208541,-1.5049999952316284,-6.317500114440918,1.2074999809265137
0.808524334898637,-0.0934519991278648,-0.9977160096168518,-0.0631959959864616,-1.1200000047683716,-4.952499866485596,1.680000066757202
0.8287374432711029,-0.1041879951953888,-0.9967399835586548,-0.0656360015273094,-0.8924999833106995,-3.920000076293945,2.240000009536743
0.8489505516435688,-0.1097999960184097,-0.9991799592971802,-0.0588039979338645,-0.612500011920929,-3.902499914169312,2.240000009536743
0.8691636600160347,-0.1178519949316978,-0.993079960346222,-0.0678320005536079,0.1400000005960464,-3.7100000381469727,2.1700000762939453
0.8893767683885007,-0.1229759976267814,-0.9906399846076964,-0.0812520012259483,0.6650000214576721,-4.304999828338623,2.1875
0.9095898767609666,-0.1139479950070381,-0.9925919771194458,-0.0875959992408752,1.3825000524520874,-4.112500190734863,2.1524999141693115
0.9298029851334325,-0.0997959971427917,-0.9833199977874756,-0.0878399983048439,2.0824999809265137,-3.990000009536743,1.924999952316284
0.9500160935058984,-0.095160000026226,-0.97843998670578,-0.0941839963197708,1.5049999952316284,-3.220000028610229,1.2424999475479126
0.9702292018783644,-0.0939399972558021,-0.9755119681358336,-0.0914999991655349,0.6474999785423279,-2.9049999713897705,0.8400000333786011
0.9904423102508303,-0.0968680009245872,-0.982587993144989,-0.0856439992785453,-0.8224999904632568,-2.870000123977661,0.1749999970197677
1.010655418623296,-0.1134599968791008,-0.9901520013809204,-0.0678320005536079,-1.5750000476837158,-3.377500057220459,-0.7350000143051147
1.030868526995762,-0.1180959939956665,-0.9889319539070128,-0.0707599967718124,-0.6650000214576721,-4.164999961853027,-0.9275000095367432
1.051081635368228,-0.110287994146347,-0.9830759763717652,-0.0722239986062049,0.1924999952316284,-4.882500171661377,-1.225000023841858
1.0712947437406939,-0.0966240018606185,-0.981611967086792,-0.0629519969224929,0.3499999940395355,-5.039999961853027,-1.627500057220459
1.0915078521131598,-0.0893040001392364,-0.9828319549560548,-0.0607559978961944,-0.3849999904632568,-4.724999904632568,-1.7675000429153442
1.1117209604856257,-0.0875959992408752,-0.9901520013809204,-0.0614879988133907,-1.5924999713897705,-4.21750020980835,-1.5750000476837158
1.1319340688580917,-0.0880839973688125,-0.9938119649887084,-0.0627079978585243,-1.715000033378601,-3.972500085830689,-1.277500033378601
1.1521471772305576,-0.0875959992408752,-0.9962520003318788,-0.0634399950504303,-1.680000066757202,-3.6050000190734863,-0.962499976158142
1.1723602856030235,-0.0863759964704513,-0.9882000088691713,-0.0702719986438751,-1.1375000476837158,-2.765000104904175,-0.7524999976158142
1.1925733939754894,-0.0893040001392364,-0.9901520013809204,-0.0688079968094825,-1.2949999570846558,-2.065000057220459,-0.7524999976158142
1.2127865023479554,-0.0980879962444305,-1.001863956451416,-0.0656360015273094,-1.4874999523162842,-1.9075000286102293,-0.962499976158142
1.2329996107204213,-0.1119959950447082,-1.0016199350357056,-0.0639280006289482,-0.699999988079071,-2.2225000858306885,-1.0499999523162842
1.2532127190928872,-0.1198039948940277,-0.9979599714279176,-0.0653920024633407,0.3149999976158142,-2.799999952316284,-0.9100000262260436
1.2734258274653532,-0.1168759986758232,-0.9952759742736816,-0.0675880014896392,1.0850000381469729,-3.640000104904175,-0.5950000286102295
1.293638935837819,-0.1068719998002052,-0.987223982810974,-0.06734399497509,1.4700000286102295,-4.304999828338623,-0.3149999976158142
1.313852044210285,-0.0983319953083992,-0.9830759763717652,-0.0697840005159378,1.2599999904632568,-4.304999828338623,-0.1749999970197677
1.334065152582751,-0.0917439982295036,-0.9777079820632936,-0.0732000023126602,-0.1050000041723251,-4.059999942779541,-0.5249999761581421
1.3542782609552169,-0.0919879972934722,-0.9847840070724488,-0.0761279985308647,-2.7300000190734863,-3.902499914169312,-1.3125
1.3744913693276828,-0.0919879972934722,-0.9967399835586548,-0.0678320005536079,-3.7100000381469727,-3.902499914169312,-1.6449999809265137
1.3947044777001487,-0.0914999991655349,-1.0021079778671265,-0.0729559957981109,-2.555000066757202,-3.3949999809265137,-1.3125
1.4149175860726146,-0.0946719944477081,-1.0001559257507324,-0.0749079957604408,-0.6299999952316284,-2.6424999237060547,-0.7699999809265137
1.4351306944450806,-0.0963799953460693,-1.0030839443206787,-0.0724679976701736,0.6650000214576721,-2.2049999237060547,-0.1749999970197677
1.4553438028175465,-0.1007720008492469,-1.006011962890625,-0.0773480013012886,2.450000047683716,-1.399999976158142,0.5074999928474426
1.4755569111900124,-0.1078479960560798,-0.9989359974861144,-0.0790559947490692,3.954999923706055,-1.399999976158142,1.3650000095367432
1.4957700195624783,-0.1019919961690902,-0.9923479557037354,-0.0734440013766288,3.797500133514404,-1.6449999809265137,1.837499976158142
1.5159831279349443,-0.0985759943723678,-0.9862479567527772,-0.0683199986815452,3.3949999809265137,-1.837499976158142,1.8899999856948853
1.5361962363074102,-0.099551998078823,-0.9845399856567384,-0.0741759985685348,2.887500047683716,-1.5399999618530271,1.837499976158142
1.5564093446798761,-0.1032119989395141,-0.9828319549560548,-0.0736880004405975,2.765000104904175,-0.9975000023841858,1.9075000286102293
1.576622453052342,-0.10589599609375,-0.9862479567527772,-0.0778359994292259,2.4674999713897705,-0.4550000131130218,1.75
1.596835561424808,-0.104432001709938,-0.9882000088691713,-0.071492001414299,2.380000114440918,-0.4900000095367431,1.5225000381469729
1.617048669797274,-0.1134599968791008,-0.9845399856567384,-0.065880000591278,1.0499999523162842,-0.2975000143051147,0.7699999809265137
1.6372617781697398,-0.1183400005102157,-0.990884006023407,-0.0707599967718124,0.2275000065565109,-0.2975000143051147,0.8224999904632568
1.6574748865422058,-0.1232199966907501,-0.9950319528579712,-0.0639280006289482,0.2975000143051147,-0.6650000214576721,0.8050000071525574
1.6776879949146717,-0.1276119947433471,-0.9901520013809204,-0.0641719996929168,0.8924999833106995,-0.8924999833106995,0.4375
1.6979011032871376,-0.1256600022315979,-0.9835639595985411,-0.0607559978961944,0.9800000190734864,-1.6449999809265137,0.3149999976158142
1.7181142116596035,-0.1212679967284202,-0.986735999584198,-0.0614879988133907,0.5074999928474426,-2.2225000858306885,0.5600000023841858
1.7383273200320695,-0.1176079958677291,-0.9852719902992249,-0.0583159998059272,0.2975000143051147,-2.5374999046325684,0.6825000047683716
1.7585404284045354,-0.1119959950447082,-0.9855159521102904,-0.056607998907566,-0.5074999928474426,-2.5199999809265137,0.5950000286102295
1.7787535367770013,-0.1105320006608963,-0.9864919781684875,-0.0563639998435974,-1.0149999856948853,-2.6424999237060547,0.5425000190734863
1.7989666451494672,-0.1105320006608963,-0.9862479567527772,-0.0636840015649795,-1.1024999618530271,-2.5374999046325684,0.5249999761581421
1.8191797535219332,-0.109555996954441,-0.9877119660377502,-0.0680759996175766,-0.875,-2.1875,0.4375
1.839392861894399,-0.1073599979281425,-0.990395963191986,-0.0651479959487915,-0.9975000023841858,-1.9774999618530276,0.2800000011920929
1.859605970266865,-0.1083360016345977,-0.9952759742736816,-0.0619760006666183,-1.1024999618530271,-1.8550000190734863,0.1749999970197677
1.879819078639331,-0.110287994146347,-0.9977160096168518,-0.0627079978585243,-0.9100000262260436,-1.627500057220459,0.0350000001490116
1.9000321870117969,-0.1127279996871948,-0.9969840049743652,-0.0629519969224929,-0.5074999928474426,-1.662500023841858,-0.1050000041723251
1.9202452953842628,-0.1193159967660904,-0.9943000078201294,-0.0639280006289482,-0.1050000041723251,-1.784999966621399,-0.2975000143051147
1.9404584037567287,-0.1149239987134933,-0.9935680031776428,-0.0609999969601631,0.4025000035762787,-1.784999966621399,-0.262499988079071
1.9606715121291947,-0.1090679988265037,-0.9947879910469056,-0.0619760006666183,0.8400000333786011,-1.715000033378601,-0.4025000035762787
1.9808846205016606,-0.105163998901844,-0.9933239817619324,-0.0614879988133907,1.3825000524520874,-1.4524999856948853,-0.5249999761581421
2.0010977288741265,-0.1041879951953888,-0.98990797996521,-0.0592919997870922,1.627500057220459,-0.9975000023841858,-0.6825000047683716
2.021310837246592,-0.1083360016345977,-0.9882000088691713,-0.0573399998247623,1.7324999570846558,-0.5425000190734863,-0.6474999785423279
2.041523945619058,-0.1146799996495246,-0.9896639585494996,-0.052947998046875,1.662500023841858,-0.4200000166893005,-0.5074999928474426
2.0617370539915236,-0.1163880005478859,-0.9938119649887084,-0.0527039989829063,1.4700000286102295,-0.4724999964237213,-0.3849999904632568
2.0819501623639893,-0.1166319996118545,-0.9906399846076964,-0.0509959980845451,1.4874999523162842,-0.7350000143051147,-0.3499999940395355
2.102163270736455,-0.1141919940710067,-0.9896639585494996,-0.05197199806571,1.5575000047683716,-0.8400000333786011,-0.2800000011920929
2.1223763791089207,-0.1137039959430694,-0.9860039949417114,-0.0539239980280399,1.6100000143051147,-0.7875000238418579,-0.2100000083446502
2.1425894874813864,-0.1141919940710067,-0.9874680042266846,-0.0563639998435974,1.3825000524520874,-0.6474999785423279,-0.1050000041723251
2.162802595853852,-0.1149239987134933,-0.9877119660377502,-0.056607998907566,1.1549999713897705,-0.7175000309944153,-0.0700000002980232
2.183015704226318,-0.115167997777462,-0.986735999584198,-0.0548999980092048,1.1375000476837158,-0.875,-0.0700000002980232
2.2032288125987836,-0.1146799996495246,-0.9864919781684875,-0.0544119998812675,0.6825000047683716,-0.9275000095367432,-0.1749999970197677
2.2234419209712493,-0.1134599968791008,-0.9896639585494996,-0.0551439970731735,0.3675000071525574,-0.9100000262260436,-0.0350000001490116
2.243655029343715,-0.1110199987888336,-0.990884006023407,-0.0539239980280399,0.1225000023841857,-0.875,0.1225000023841857
2.2638681377161807,-0.110287994146347,-0.9913719892501832,-0.0578279979526996,0.1225000023841857,-0.6474999785423279,0.262499988079071
2.2840812460886464,-0.1119959950447082,-0.98990797996521,-0.0607559978961944,0.2275000065565109,-0.6299999952316284,0.262499988079071
2.304294354461112,-0.1112639978528022,-0.9945439696311952,-0.0588039979338645,0.4025000035762787,-0.6650000214576721,0.2275000065565109
2.324507462833578,-0.1139479950070381,-0.9916160106658936,-0.0600240007042884,0.8224999904632568,-0.0874999985098838,0.2100000083446502
2.3447205712060435,-0.114436000585556,-0.9913719892501832,-0.0627079978585243,1.0850000381469729,0.0175000000745058,0.3675000071525574
2.364933679578509,-0.1183400005102157,-0.9938119649887084,-0.0639280006289482,1.1200000047683716,-0.0700000002980232,0.332500010728836
2.385146787950975,-0.1212679967284202,-0.9935680031776428,-0.057583998888731,1.2949999570846558,-0.4025000035762787,0.0874999985098838
2.4053598963234406,-0.1219999939203262,-0.9842959642410278,-0.0539239980280399,1.4350000619888306,-0.262499988079071,-0.3675000071525574
2.4255730046959063,-0.114436000585556,-0.981611967086792,-0.0546559989452362,0.4200000166893005,-0.0700000002980232,-0.5950000286102295
2.445786113068372,-0.1088239997625351,-0.9896639585494996,-0.0580720007419586,0.0350000001490116,0.3149999976158142,-0.1749999970197677
2.4659992214408377,-0.1073599979281425,-0.9891759753227234,-0.0553879998624324,0.1400000005960464,0.699999988079071,-0.0700000002980232
2.4862123298133034,-0.1105320006608963,-0.9850279688835144,-0.0551439970731735,-0.1050000041723251,1.1549999713897705,-0.0874999985098838
2.506425438185769,-0.1112639978528022,-0.9855159521102904,-0.0590479969978332,-0.612500011920929,1.4700000286102295,-0.1225000023841857
2.526638546558235,-0.1117519959807396,-0.9916160106658936,-0.0595359988510608,-1.2424999475479126,1.5575000047683716,-0.4375
2.5468516549307005,-0.1149239987134933,-0.9964959621429444,-0.0592919997870922,-1.0149999856948853,1.784999966621399,-0.5425000190734863
2.5670647633031662,-0.1173639968037605,-0.9964959621429444,-0.0631959959864616,-0.7524999976158142,1.8550000190734863,-0.5249999761581421
2.587277871675632,-0.1202920004725456,-0.9921039938926696,-0.0646599978208541,-0.4375,1.715000033378601,-0.6825000047683716
2.6074909800480977,-0.1193159967660904,-0.9913719892501832,-0.0605119988322258,-0.2100000083446502,1.3125,-0.8224999904632568
2.6277040884205634,-0.1202920004725456,-0.9882000088691713,-0.0546559989452362,-0.3675000071525574,0.8924999833106995,-0.8924999833106995
2.647917196793029,-0.1166319996118545,-0.98990797996521,-0.0553879998624324,-0.7350000143051147,0.4025000035762787,-0.8575000166893005
2.6681303051654948,-0.1132159978151321,-0.9918599724769592,-0.0600240007042884,-0.8050000071525574,0.1749999970197677,-0.7699999809265137
2.6883434135379605,-0.1112639978528022,-0.9889319539070128,-0.061243999749422,-0.4724999964237213,0.1574999988079071,-0.7175000309944153
2.708556521910426,-0.110287994146347,-0.986735999584198,-0.0595359988510608,-0.3499999940395355,0.1749999970197677,-0.7350000143051147
2.728769630282892,-0.110287994146347,-0.986735999584198,-0.0578279979526996,-0.6825000047683716,0.332500010728836,-0.7175000309944153
2.7489827386553576,-0.1117519959807396,-0.9889319539070128,-0.0568519979715347,-1.1375000476837158,0.4200000166893005,-0.6650000214576721
2.7691958470278233,-0.1124840006232261,-0.9923479557037354,-0.0558759979903698,-1.5049999952316284,0.3849999904632568,-0.612500011920929
2.789408955400289,-0.1122400015592575,-0.9921039938926696,-0.0561200007796287,-1.4524999856948853,0.3149999976158142,-0.4900000095367431
2.8096220637727547,-0.109555996954441,-0.98990797996521,-0.0617319978773593,-0.9975000023841858,0.7699999809265137,-0.0874999985098838
2.8298351721452204,-0.1080919951200485,-0.9884439706802368,-0.0629519969224929,-0.9275000095367432,1.0850000381469729,0.0350000001490116
2.850048280517686,-0.1090679988265037,-0.990884006023407,-0.0641719996929168,-1.1375000476837158,1.3825000524520874,0.0874999985098838
2.870261388890152,-0.110287994146347,-0.9950319528579712,-0.0641719996929168,-1.1725000143051147,1.4700000286102295,0.1050000041723251
2.8904744972626175,-0.1117519959807396,-0.995519995689392,-0.0617319978773593,-0.7350000143051147,1.4175000190734863,0.1574999988079071
2.910687605635083,-0.1141919940710067,-0.994055986404419,-0.0617319978773593,-0.1749999970197677,1.3300000429153442,0.1225000023841857
2.930900714007549,-0.1166319996118545,-0.990395963191986,-0.0634399950504303,0.3499999940395355,1.1725000143051147,0.1225000023841857
2.9511138223800146,-0.1161440014839172,-0.9879559874534608,-0.0624639987945556,0.5074999928474426,0.962499976158142,0.1225000023841857
2.9713269307524803,-0.1156559959053993,-0.990395963191986,-0.0629519969224929,0.2275000065565109,0.8400000333786011,-0.0350000001490116
2.991540039124946,-0.1132159978151321,-0.9935680031776428,-0.0644159987568855,-0.0874999985098838,0.4724999964237213,-0.1225000023841857
3.0117531474974117,-0.1158999949693679,-0.9989359974861144,-0.0646599978208541,-0.0350000001490116,-0.1749999970197677,-0.0350000001490116
3.0319662558698774,-0.1163880005478859,-0.9921039938926696,-0.0649039968848228,0.8924999833106995,-0.9800000190734864,-0.0874999985098838
3.052179364242343,-0.1149239987134933,-0.9879559874534608,-0.0651479959487915,1.399999976158142,-1.3650000095367432,-0.262499988079071
3.072392472614809,-0.1090679988265037,-0.9894199967384338,-0.0617319978773593,1.3125,-1.2424999475479126,-0.1924999952316284
3.0926055809872746,-0.1068719998002052,-0.986735999584198,-0.0536799989640712,0.875,-1.0674999952316284,-0.1400000005960464
3.1128186893597403,-0.104432001709938,-0.9842959642410278,-0.0546559989452362,-0.0874999985098838,-0.332500010728836,-0.0525000020861625
3.133031797732206,-0.1056519970297813,-0.987223982810974,-0.0646599978208541,-0.962499976158142,0.6825000047683716,0.2450000047683715
3.1532449061046717,-0.1076039969921112,-0.9906399846076964,-0.066611997783184,-1.1375000476837158,1.399999976158142,0.2975000143051147
3.1734580144771374,-0.109555996954441,-0.990395963191986,-0.0644159987568855,-0.875,1.7675000429153442,0.0175000000745058
3.193671122849603,-0.1129719987511634,-0.9906399846076964,-0.0631959959864616,-0.6299999952316284,1.9600000381469729,-0.1400000005960464
3.213884231222069,-0.1149239987134933,-0.9891759753227234,-0.0636840015649795,-0.3499999940395355,2.0299999713897705,-0.3675000071525574
3.2340973395945345,-0.1168759986758232,-0.9886879920959472,-0.0602679997682571,-0.1225000023841857,1.9774999618530276,-0.5774999856948853
3.254310447967,-0.1200480014085769,-0.9928359985351562,-0.0639280006289482,0.1924999952316284,1.9774999618530276,-0.6474999785423279
3.274523556339466,-0.1210239976644516,-0.994055986404419,-0.0649039968848228,0.6650000214576721,1.8899999856948853,-0.699999988079071
3.2947366647119316,-0.118827998638153,-0.9921039938926696,-0.0634399950504303,0.9975000023841858,1.715000033378601,-0.7524999976158142
3.3149497730843973,-0.118827998638153,-0.9925919771194458,-0.0609999969601631,0.9275000095367432,1.1725000143051147,-0.612500011920929
3.335162881456863,-0.1183400005102157,-0.9925919771194458,-0.0595359988510608,0.7175000309944153,0.6299999952316284,-0.4200000166893005
3.3553759898293287,-0.1178519949316978,-0.9935680031776428,-0.0588039979338645,0.5774999856948853,0.1400000005960464,-0.2100000083446502
3.3755890982017944,-0.1178519949316978,-0.9916160106658936,-0.0607559978961944,0.8050000071525574,-0.1225000023841857,-0.1225000023841857
3.39580220657426,-0.115167997777462,-0.9889319539070128,-0.0624639987945556,0.9975000023841858,-0.2800000011920929,-0.1050000041723251
3.416015314946726,-0.1107759997248649,-0.98990797996521,-0.061243999749422,0.4550000131130218,0.1924999952316284,-0.2275000065565109
3.4362284233191915,-0.1107759997248649,-0.9901520013809204,-0.0629519969224929,0.4025000035762787,0.4025000035762787,-0.262499988079071
3.4564415316916572,-0.1124840006232261,-0.990884006023407,-0.062219999730587,0.5950000286102295,0.7350000143051147,-0.2975000143051147
3.476654640064123,-0.1139479950070381,-0.98990797996521,-0.0617319978773593,0.9275000095367432,0.8575000166893005,-0.3149999976158142
3.4968677484365887,-0.1141919940710067,-0.9894199967384338,-0.062219999730587,0.9449999928474426,0.8924999833106995,-0.3675000071525574
3.5170808568090544,-0.1141919940710067,-0.9913719892501832,-0.0619760006666183,0.8924999833106995,0.7175000309944153,-0.4375
3.53729396518152,-0.110287994146347,-0.9879559874534608,-0.0627079978585243,0.875,0.5950000286102295,-0.3849999904632568
3.5575070735539858,-0.1119959950447082,-0.98990797996521,-0.0649039968848228,0.699999988079071,0.7524999976158142,-0.1574999988079071
3.5777201819264515,-0.1124840006232261,-0.9935680031776428,-0.0644159987568855,0.6650000214576721,0.7175000309944153,0.0175000000745058
3.597933290298917,-0.109555996954441,-0.9933239817619324,-0.0595359988510608,0.962499976158142,0.3675000071525574,0.0175000000745058
3.618146398671383,-0.1105320006608963,-0.9906399846076964,-0.061243999749422,1.0674999952316284,0.3499999940395355,-0.0350000001490116
3.6383595070438486,-0.1129719987511634,-0.9916160106658936,-0.0609999969601631,1.0850000381469729,0.3849999904632568,0.0175000000745058
3.6585726154163143,-0.1119959950447082,-0.9901520013809204,-0.0595359988510608,1.2074999809265137,0.3149999976158142,0.0700000002980232
3.67878572378878,-0.1088239997625351,-0.9860039949417114,-0.0590479969978332,0.8575000166893005,0.1924999952316284,0.0525000020861625
3.6989988321612457,-0.1093119978904724,-0.9894199967384338,-0.0624639987945556,0.1225000023841857,0.4025000035762787,0.1050000041723251
3.7192119405337114,-0.109555996954441,-0.9923479557037354,-0.0644159987568855,-0.1050000041723251,0.4900000095367431,0.0700000002980232
3.739425048906177,-0.1088239997625351,-0.9852719902992249,-0.0629519969224929,0.1400000005960464,0.4375,-0.1400000005960464
3.759638157278643,-0.1115079969167709,-0.987223982810974,-0.0649039968848228,-0.1050000041723251,0.6825000047683716,-0.2450000047683715
3.7798512656511085,-0.1112639978528022,-0.9933239817619324,-0.0690519958734512,-0.1924999952316284,0.875,-0.1924999952316284
3.800064374023574,-0.1088239997625351,-0.9938119649887084,-0.0614879988133907,0.1225000023841857,0.8050000071525574,-0.3149999976158142
3.82027748239604,-0.1119959950447082,-0.98990797996521,-0.0614879988133907,0.0350000001490116,1.1375000476837158,-0.4900000095367431
3.8404905907685056,-0.1124840006232261,-0.9911279678344728,-0.0646599978208541,-0.0700000002980232,1.4175000190734863,-0.4900000095367431
3.8607036991409713,-0.1137039959430694,-0.9923479557037354,-0.0639280006289482,0.2100000083446502,1.1725000143051147,-0.5425000190734863
3.880916807513437,-0.1119959950447082,-0.9889319539070128,-0.0600240007042884,0.5950000286102295,0.6650000214576721,-0.6825000047683716
3.9011299158859027,-0.1127279996871948,-0.9855159521102904,-0.0614879988133907,0.4375,0.5774999856948853,-0.612500011920929
3.9213430242583684,-0.1122400015592575,-0.9906399846076964,-0.0617319978773593,0.1400000005960464,0.2450000047683715,-0.8400000333786011
3.941556132630834,-0.1134599968791008,-0.990884006023407,-0.0592919997870922,0.332500010728836,0.1400000005960464,-0.8400000333786011
3.9617692410033,-0.1166319996118545,-0.9918599724769592,-0.0590479969978332,0.4550000131130218,-0.1400000005960464,-0.6474999785423279
3.9819823493757656,-0.1127279996871948,-0.9906399846076964,-0.0624639987945556,0.5074999928474426,-0.3499999940395355,-0.2450000047683715
4.002195457748232,-0.1024799942970275,-0.9884439706802368,-0.0600240007042884,-0.0350000001490116,-0.2450000047683715,0.1924999952316284
4.022408566120697,-0.1041879951953888,-0.9889319539070128,-0.0614879988133907,-0.5249999761581421,0.1749999970197677,0.262499988079071
4.042621674493163,-0.1068719998002052,-0.98990797996521,-0.0631959959864616,-0.6650000214576721,0.5074999928474426,0.3149999976158142
4.062834782865629,-0.109555996954441,-0.98990797996521,-0.0644159987568855,-0.4724999964237213,0.699999988079071,0.262499988079071
4.0830478912380945,-0.1115079969167709,-0.9894199967384338,-0.0646599978208541,-0.3849999904632568,0.7699999809265137,0.0700000002980232
4.10326099961056,-0.1129719987511634,-0.9896639585494996,-0.0634399950504303,-0.4025000035762787,0.875,0.0350000001490116
4.123474107983026,-0.1146799996495246,-0.9901520013809204,-0.0644159987568855,-0.4025000035762787,0.7350000143051147,0.0700000002980232
4.143687216355492,-0.1119959950447082,-0.9916160106658936,-0.0636840015649795,-0.3499999940395355,0.6299999952316284,0.2100000083446502
4.163900324727957,-0.110287994146347,-0.9884439706802368,-0.0636840015649795,-0.2100000083446502,0.612500011920929,0.3499999940395355
4.184113433100423,-0.1097999960184097,-0.9891759753227234,-0.0641719996929168,-0.1924999952316284,0.8050000071525574,0.4724999964237213
4.204326541472889,-0.1119959950447082,-0.993079960346222,-0.0646599978208541,-0.5074999928474426,0.8924999833106995,0.4375
4.2245396498453545,-0.114436000585556,-0.9950319528579712,-0.0651479959487915,-0.5425000190734863,0.8924999833106995,0.2275000065565109
4.24475275821782,-0.1180959939956665,-0.9972279667854308,-0.0639280006289482,0.0700000002980232,0.7875000238418579,0.0525000020861625
4.264965866590286,-0.1193159967660904,-0.9935680031776428,-0.0629519969224929,0.8575000166893005,0.6299999952316284,0.0175000000745058
4.285178974962752,-0.1176079958677291,-0.9894199967384338,-0.0627079978585243,1.4874999523162842,0.0350000001490116,0.0525000020861625
4.305392083335217,-0.1190719977021217,-0.9891759753227234,-0.0592919997870922,1.2599999904632568,-0.2800000011920929,0.0175000000745058
4.325605191707683,-0.1215119957923889,-0.9923479557037354,-0.0578279979526996,0.9975000023841858,-0.3675000071525574,0.0874999985098838
4.345818300080149,-0.1237079948186874,-0.9911279678344728,-0.0590479969978332,1.190000057220459,-0.4375,0.1050000041723251
4.366031408452614,-0.1261480003595352,-0.9906399846076964,-0.0580720007419586,1.2424999475479126,-0.4200000166893005,-0.0525000020861625
4.38624451682508,-0.1293199956417083,-0.9943000078201294,-0.056607998907566,1.3125,-0.9800000190734864,-0.2450000047683715
4.406457625197546,-0.1341999918222427,-0.9962520003318788,-0.0558759979903698,1.784999966621399,-1.662500023841858,-0.2100000083446502
4.4266707335700115,-0.1376159936189651,-0.987223982810974,-0.0546559989452362,2.327500104904175,-2.0299999713897705,-0.1400000005960464
4.446883841942477,-0.1349319964647293,-0.9762439727783204,-0.0592919997870922,2.327500104904175,-1.9774999618530276,-0.4724999964237213
4.467096950314943,-0.1310279965400695,-0.9750239849090576,-0.0592919997870922,1.5924999713897705,-1.399999976158142,-0.9800000190734864
4.487310058687409,-0.1322479993104934,-0.987223982810974,-0.0509959980845451,0.2450000047683715,-0.9449999928474426,-1.5575000047683716
4.507523167059874,-0.1368840038776397,-0.9921039938926696,-0.0439199991524219,-0.612500011920929,-0.3499999940395355,-2.047499895095825
4.52773627543234,-0.1366399973630905,-0.9928359985351562,-0.0478239990770816,-1.0499999523162842,0.7175000309944153,-2.327500104904175
4.547949383804806,-0.1378600001335144,-0.9960079789161682,-0.0531919971108436,-1.2949999570846558,1.75,-2.1875
4.568162492177271,-0.142984002828598,-0.9923479557037354,-0.0573399998247623,-0.8575000166893005,1.995000004768372,-2.117500066757202
4.588375600549737,-0.1600639969110489,-0.9855159521102904,-0.0458719991147518,-0.332500010728836,0.2275000065565109,-2.992500066757202
4.608588708922203,-0.1649439930915832,-0.98990797996521,-0.0390399992465972,-0.962499976158142,-1.2949999570846558,-3.5350000858306885
4.6288018172946686,-0.1578679978847503,-0.9911279678344728,-0.0375759974122047,-0.7699999809265137,-3.0450000762939453,-4.09499979019165
4.649014925667134,-0.1371279954910278,-0.9874680042266846,-0.0407480001449584,-0.2450000047683715,-4.550000190734863,-4.182499885559082
4.6692280340396,-0.110287994146347,-0.9850279688835144,-0.0446520000696182,-0.4200000166893005,-6.019999980926514,-3.7799999713897705
4.689441142412066,-0.08661999553442,-0.9947879910469056,-0.0546559989452362,-1.662500023841858,-5.40749979019165,-3.6050000190734863
4.709654250784531,-0.0773480013012886,-0.9952759742736816,-0.0631959959864616,-1.9774999618530276,-3.289999961853028,-3.867500066757202
4.729867359156997,-0.0736880004405975,-0.9906399846076964,-0.0775920003652572,-2.0999999046325684,-0.8050000071525574,-4.672500133514404
4.750080467529463,-0.0827159956097602,-0.9918599724769592,-0.0929640009999275,-1.6974999904632568,2.065000057220459,-5.880000114440918
4.7702935759019285,-0.0988200008869171,-1.0025960206985474,-0.1019919961690902,-0.962499976158142,4.637499809265137,-7.0
4.790506684274394,-0.114436000585556,-1.0089399814605713,-0.0993079990148544,0.8224999904632568,5.670000076293945,-7.367499828338623
4.81071979264686,-0.1163880005478859,-0.9999119639396667,-0.0883279964327812,0.6299999952316284,4.760000228881836,-6.650000095367432
4.830932901019326,-0.1139479950070381,-1.0057679414749146,-0.0729559957981109,0.3675000071525574,2.7300000190734863,-4.847499847412109
4.851146009391791,-0.1061399951577186,-0.9935680031776428,-0.0600240007042884,1.6100000143051147,-0.5950000286102295,-3.115000009536743
4.871359117764257,-0.0936959981918335,-0.9708759784698486,-0.0617319978773593,1.4874999523162842,-2.747499942779541,-1.6449999809265137
4.891572226136723,-0.0775920003652572,-0.97599995136261,-0.0609999969601631,-1.1725000143051147,-3.762500047683716,-0.8924999833106995
4.911785334509188,-0.0663679987192154,-0.9830759763717652,-0.062219999730587,-2.6424999237060547,-4.09499979019165,-0.8224999904632568
4.931998442881654,-0.0568519979715347,-0.9772199988365172,-0.0649039968848228,-2.712500095367432,-6.002500057220459,-1.5575000047683716
4.95221155125412,-0.0573399998247623,-0.965507984161377,-0.0609999969601631,-2.694999933242798,-9.0649995803833,-3.132499933242798
4.9724246596265855,-0.0685639977455139,-0.9681919813156128,-0.0624639987945556,-3.552500009536743,-10.850000381469728,-5.005000114440918
4.992637767999051,-0.0800319984555244,-0.9821000099182128,-0.0692960023880004,-3.797500133514404,-12.25,-7.087500095367432
5.012850876371517,-0.1015039980411529,-0.9911279678344728,-0.0780799984931945,-3.3424999713897705,-14.210000038146973,-8.557499885559082
5.033063984743983,-0.1119959950447082,-1.0033279657363892,-0.0663679987192154,-2.4674999713897705,-18.6200008392334,-8.522500038146973
5.053277093116448,-0.1154119968414306,-1.006011962890625,-0.0580720007419586,-1.1024999618530271,-23.34499931335449,-7.542500019073486
5.073490201488914,-0.1054079979658126,-0.9886879920959472,-0.0422119982540607,1.190000057220459,-26.98500061035156,-5.792500019073486
5.09370330986138,-0.0966240018606185,-0.96697199344635,-0.0273279994726181,0.6650000214576721,-29.434999465942383,-5.162499904632568
5.1139164182338455,-0.0966240018606185,-0.9711199998855592,-0.0253759995102882,-2.6600000858306885,-28.4375,-4.269999980926514
5.134129526606311,-0.100283995270729,-1.0043039321899414,-0.023667998611927,-7.227499961853027,-27.33500099182129,-3.3424999713897705
5.154342634978777,-0.1105320006608963,-1.0279719829559326,-0.0217159986495971,-9.135000228881836,-26.512500762939453,-2.5374999046325684
5.174555743351243,-0.1271239966154098,-1.0289479494094849,-0.0212280005216598,-7.087500095367432,-26.092500686645508,-2.1524999141693115
5.194768851723708,-0.2291159927845001,-1.001863956451416,-0.0217159986495971,1.3300000429153442,-34.22999954223633,-2.432500123977661
5.214981960096174,-0.2779159843921661,-1.0016199350357056,-0.0312319993972778,3.4124999046325684,-42.26250076293945,-2.240000009536743
5.23519506846864,-0.3057319819927215,-1.0116239786148071,-0.0485559999942779,5.039999961853027,-52.4474983215332,-1.399999976158142
5.255408176841105,-0.2918239831924438,-1.016503930091858,-0.0590479969978332,7.105000019073486,-63.90999984741211,0.6825000047683716
5.275621285213571,-0.2271640002727508,-1.0189440250396729,-0.0444080010056495,7.052500247955322,-73.72750091552734,3.5174999237060547
5.295834393586037,-0.1171199977397918,-1.0287039279937744,-0.0036599999293684,4.427500247955322,-76.63249969482422,6.090000152587891
5.3160475019585025,0.0048799999058246,-1.0528600215911863,-0.0012199999764561,-1.3300000429153442,-70.73500061035156,9.817500114440918
5.336260610330968,0.130295991897583,-1.087507963180542,-0.0314759984612464,-3.569999933242798,-59.185001373291016,14.647500038146973
5.356473718703434,0.1949559897184372,-1.0843359231948853,-0.0944279953837394,-0.1749999970197677,-43.067501068115234,17.727500915527344
5.3766868270759,0.2215519994497299,-1.087996006011963,-0.2005679905414581,8.522500038146973,-22.225000381469727,17.86750030517578
5.396899935448365,0.1842200011014938,-1.0116239786148071,-0.2152079939842224,19.9325008392334,-3.377500057220459,17.3075008392334
5.417113043820831,0.0897919982671737,-0.9977160096168518,-0.1856839954853058,18.655000686645508,14.47249984741211,15.539999961853027
5.437326152193297,0.0112239997833967,-1.0047919750213623,-0.1464000046253204,17.045000076293945,28.717500686645508,13.072500228881836
5.457539260565762,-0.057583998888731,-0.9974719882011414,-0.1354199945926666,18.375,37.88750076293945,10.342499732971191
5.477752368938228,-0.1322479993104934,-0.9564799666404724,-0.1224879994988441,20.59749984741211,42.875,8.890000343322754
5.497965477310694,-0.2364359945058822,-0.936959981918335,-0.1446920037269592,17.2549991607666,44.36249923706055,9.449999809265137
5.5181785856831596,-0.2422920018434524,-0.9408639669418336,-0.099551998078823,17.604999542236328,37.50249862670898,11.182499885559082
5.538391694055625,-0.2235039919614792,-0.8974319696426392,-0.052216000854969,21.262500762939453,31.815000534057617,13.05500030517578
5.558604802428091,-0.1688479930162429,-0.9357399940490724,-0.0370879992842674,15.487500190734863,26.54750061035156,12.18000030517578
5.578817910800557,-0.1449359953403473,-0.9518439769744872,-0.0346480011940002,15.032500267028809,25.8125,12.739999771118164
5.599031019173022,-0.1022359952330589,-0.9769759774208068,0.0112239997833967,8.417500495910645,22.487499237060547,10.255000114440918
5.619244127545488,-0.1273680031299591,-1.0208959579467771,0.0509959980845451,4.96999979019165,25.23500061035156,9.3100004196167
5.639457235917954,-0.1776320040225982,-1.0348039865493774,0.0795440003275871,9.607500076293944,27.177499771118164,7.070000171661377
5.6596703442904195,-0.2088640034198761,-0.9957639575004578,0.0985759943723678,16.502500534057617,24.850000381469727,4.112500190734863
5.679883452662885,-0.2042279988527298,-0.970143973827362,0.1156559959053993,18.95249938964844,20.475000381469727,2.345000028610229
5.700096561035351,-0.1986159980297088,-0.9374479651451112,0.13468798995018,17.86750030517578,18.637500762939453,1.2599999904632568
5.720309669407817,-0.1908079981803894,-0.9252479672431946,0.1268799901008606,14.80500030517578,18.74250030517578,1.0149999856948853
5.740522777780282,-0.1705559939146042,-0.8827919960021973,0.1283439993858337,11.112500190734863,16.520000457763672,0.1574999988079071
5.760735886152748,-0.1627479940652847,-0.8823039531707764,0.1227319985628128,2.5899999141693115,15.487500190734863,-0.0874999985098838
5.780948994525214,-0.1510359942913055,-0.8801079988479614,0.1232199966907501,-3.0975000858306885,14.892499923706056,0.5425000190734863
5.801162102897679,-0.1620160043239593,-0.9091439843177797,0.1183400005102157,-17.674999237060547,17.780000686645508,0.3675000071525574
5.821375211270145,-0.1639679968357086,-0.9423279762268066,0.1383479982614517,-22.592500686645508,19.26749992370605,-0.2100000083446502
5.841588319642611,-0.1847079992294311,-0.9518439769744872,0.1510359942913055,-23.48500061035156,19.862499237060547,-1.1549999713897705
5.8618014280150765,-0.2144759893417358,-0.9315919876098632,0.1417640000581741,-23.25749969482422,21.665000915527344,-0.962499976158142
5.882014536387542,-0.228872001171112,-0.9542839527130128,0.1442039906978607,-25.76000022888184,19.670000076293945,-1.1549999713897705
5.902227644760008,-0.2181359976530075,-0.9511119723320008,0.1495719999074936,-25.427499771118164,18.23500061035156,-2.1875
5.922440753132474,-0.2174039930105209,-1.0128439664840698,0.0883279964327812,-23.537500381469727,18.51499938964844,-3.0625
5.942653861504939,-0.147376000881195,-1.010159969329834,0.1683599948883056,-16.309999465942383,12.425000190734863,-5.144999980926514
5.962866969877405,-0.2474159896373748,-1.1211799383163452,-0.003171999938786,-18.88249969482422,36.92499923706055,-1.5399999618530271
5.983080078249871,-0.2598600089550018,-1.1712000370025637,-0.2054480016231537,-10.850000381469728,32.935001373291016,4.65500020980835
6.0032931866223365,-0.2012999951839447,-1.2295160293579102,-0.2381439954042434,-0.4900000095367431,43.66249847412109,12.232500076293944
6.023506294994802,-0.1415199935436248,-1.097999930381775,0.0082959998399019,12.512499809265137,29.295000076293945,16.625
6.043719403367268,-0.1483519971370697,-0.9789279699325562,0.052216000854969,15.81999969482422,27.020000457763672,20.71999931335449
6.063932511739734,-0.1590880006551742,-0.8449719548225403,0.0661239996552467,19.792499542236328,30.030000686645508,22.802499771118164
6.084145620112199,-0.1942239999771118,-0.8486319780349731,-0.0265959985554218,13.282500267028809,33.38999938964844,18.200000762939453
6.104358728484665,-0.2508319914340973,-0.929152011871338,-0.0846679955720901,10.045000076293944,41.772499084472656,15.137499809265137
6.124571836857131,-0.1739719957113266,-1.043344020843506,-0.0822279974818229,12.407500267028809,44.01250076293945,18.51499938964844
6.144784945229596,0.0119559997692704,-1.0416359901428225,-0.0580720007419586,14.50749969482422,44.60750198364258,22.190000534057617
6.164998053602062,-0.0605119988322258,-0.9547719955444336,-0.1349319964647293,15.172499656677246,50.994998931884766,20.49250030517578
6.185211161974528,-0.0246439985930919,-0.9101200103759766,-0.2083759903907776,7.157500267028809,47.21500015258789,15.38249969482422
6.2054242703469935,-0.0592919997870922,-0.9823439717292786,-0.2820639908313751,-3.815000057220459,56.38500213623047,14.315000534057615
6.225637378719459,-0.1481079906225204,-1.0633519887924194,-0.2464399933815002,-15.085000038146973,54.845001220703125,7.875
6.245850487091925,-0.2254559993743896,-1.0982439517974854,-0.191783994436264,-20.825000762939453,46.462501525878906,-3.0274999141693115
6.266063595464391,-0.2969479858875274,-1.0892159938812256,-0.1837320029735565,-16.55500030517578,38.41249847412109,-13.125
6.286276703836856,-0.2845039963722229,-1.007475972175598,-0.1800719946622848,-5.740000247955322,24.395000457763672,-19.372499465942383
6.306489812209322,-0.2683999836444855,-0.9777079820632936,-0.1786080002784729,-1.1725000143051147,14.332500457763672,-20.15999984741211
6.326702920581788,-0.2327760010957718,-0.9882000088691713,-0.1410319954156875,1.8025000095367432,4.865000247955322,-20.77250099182129
6.346916028954253,-0.1683599948883056,-0.9452559947967528,-0.1251720041036605,7.927500247955322,-2.012500047683716,-20.912500381469727
6.367129137326719,-0.0734440013766288,-0.9108519554138184,-0.0983319953083992,5.267499923706055,-3.622499942779541,-20.19499969482422
6.387342245699185,0.0241560004651546,-0.9045079946517944,-0.0807639956474304,-2.362499952316284,-4.077499866485596,-19.792499542236328
6.4075553540716506,0.0734440013766288,-0.9850279688835144,-0.0680759996175766,-15.71500015258789,5.197500228881836,-12.039999961853027
6.427768462444116,0.0387960001826286,-1.0665240287780762,-0.1205359995365142,-16.55500030517578,11.40999984741211,-8.050000190734863
6.447981570816582,-0.0222040005028247,-1.064571976661682,-0.1381039917469024,-7.822500228881836,16.642499923706055,-5.337500095367432
6.468194679189048,-0.0727119967341423,-0.9991799592971802,-0.1202920004725456,0.2450000047683715,20.737499237060547,-3.3424999713897705
6.488407787561513,-0.1127279996871948,-0.9625799655914308,-0.110287994146347,1.2599999904632568,20.247499465942383,-2.9749999046325684
6.508620895933979,-0.1510359942913055,-0.929639995098114,-0.1117519959807396,0.2450000047683715,18.00749969482422,-2.765000104904175
6.528834004306445,-0.1783639937639236,-0.933788001537323,-0.1212679967284202,-4.619999885559082,14.647500038146973,-2.9749999046325684
6.5490471126789105,-0.1937360018491745,-0.9154880046844482,-0.1241960003972053,-8.295000076293945,9.887499809265137,-3.377500057220459
6.569260221051376,-0.1900759935379028,-0.9313479661941528,-0.1324919909238815,-14.5600004196167,4.322500228881836,-3.797500133514404
6.589473329423842,-0.1439599990844726,-0.9689239859580994,-0.1410319954156875,-18.23500061035156,-1.0325000286102295,-4.042500019073486
6.609686437796308,-0.109555996954441,-0.9896639585494996,-0.1332239955663681,-20.299999237060547,-5.932499885559082,-4.900000095367432
6.629899546168773,-0.0888160020112991,-1.012355923652649,-0.1298079937696457,-20.52750015258789,-10.1850004196167,-5.827499866485596
6.650112654541239,-0.0663679987192154,-0.998203992843628,-0.1259039938449859,-17.3075008392334,-12.65250015258789,-7.315000057220459
6.670325762913705,-0.0580720007419586,-0.965507984161377,-0.1337119936943054,-12.739999771118164,-13.649999618530272,-7.454999923706055
6.69053887128617,-0.0468479990959167,-0.9762439727783204,-0.1190719977021217,-10.237500190734863,-15.032500267028809,-6.090000152587891
6.710751979658636,-0.0583159998059272,-0.9889319539070128,-0.0973559990525245,-8.154999732971191,-16.65999984741211,-4.690000057220459
6.730965088031102,-0.0817399993538856,-0.9945439696311952,-0.0802759975194931,-4.829999923706055,-20.05500030517578,-3.184999942779541
6.7511781964035675,-0.0839359983801841,-0.9943000078201294,-0.0944279953837394,0.6474999785423279,-23.607500076293945,-0.612500011920929
6.771391304776033,-0.08661999553442,-0.9769759774208068,-0.158843994140625,5.302500247955322,-24.09749984741211,3.0625
6.791604413148499,-0.1273680031299591,-0.9991799592971802,-0.2125239968299865,4.637499809265137,-23.3799991607666,5.302500247955322
6.811817521520965,-0.163235992193222,-1.0494439601898191,-0.2105719894170761,3.289999961853028,-25.76000022888184,5.827499866485596
6.83203062989343,-0.1700679957866668,-1.0821399688720703,-0.224480003118515,5.617499828338623,-27.002500534057617,4.847499847412109
6.852243738265896,-0.1925159990787506,-1.060912013053894,-0.2525399923324585,10.97249984741211,-28.052499771118164,2.799999952316284
6.872456846638362,-0.1856839954853058,-0.9974719882011414,-0.226187989115715,15.592499732971191,-28.03499984741211,2.817500114440918
6.8926699550108275,-0.1659199893474578,-0.9289079904556274,-0.2195999920368194,17.762500762939453,-25.30500030517578,5.372499942779541
6.912883063383293,-0.1942239999771118,-0.8986519575119019,-0.2391199916601181,16.957500457763672,-22.27750015258789,9.5024995803833
6.933096171755759,-0.2513200044631958,-0.8669319748878479,-0.196175992488861,12.897500038146973,-23.20499992370605,11.899999618530272
6.953309280128225,-0.1998360008001327,-0.8598560094833374,-0.2000799924135208,5.670000076293945,-26.26749992370605,11.602499961853027
6.97352238850069,-0.1998360008001327,-0.8288679718971252,-0.2010560035705566,-4.042500019073486,-25.375,8.890000343322754
6.993735496873156,-0.1847079992294311,-0.9118279814720154,-0.1686040014028549,-18.217500686645508,-25.427499771118164,4.409999847412109
7.013948605245622,-0.1629920005798339,-1.129963994026184,-0.1041879951953888,-9.397500038146973,-23.607500076293945,0.1225000023841857
7.034161713618087,-0.1647000014781952,-1.120692014694214,-0.0797879993915557,5.740000247955322,-22.78499984741211,2.134999990463257
7.054374821990553,-0.1493279933929443,-1.0623760223388672,-0.0292799994349479,12.984999656677246,-21.4375,3.902499914169312
7.074587930363019,-0.1263919919729232,-1.002351999282837,0.0126879997551441,14.875,-15.522500038146973,4.409999847412109
7.0948010387354845,-0.1298079937696457,-0.9882000088691713,0.0134199997410178,12.8100004196167,-6.737500190734863,3.0274999141693115
7.11501414710795,-0.1251720041036605,-0.9681919813156128,0.0202520005404949,10.237500190734863,0.262499988079071,-0.612500011920929
7.135227255480416,-0.1280999928712844,-0.9486719965934752,0.0331839993596077,6.929999828338623,6.615000247955322,-2.870000123977661
7.155440363852882,-0.1398119926452636,-0.9674599766731262,0.0114679997786879,3.745000123977661,12.635000228881836,-3.815000057220459
7.175653472225347,-0.1525000035762787,-0.9757559895515442,0.0273279994726181,3.972500085830689,17.010000228881836,-5.477499961853027
7.195866580597813,-0.1427399963140487,-0.9606279730796814,0.0239119995385408,6.824999809265137,19.739999771118164,-10.779999732971191
7.216079688970279,-0.1520119905471801,-0.905239999294281,0.0158599987626075,9.012499809265137,20.57999992370605,-16.922500610351562
7.236292797342744,-0.195932000875473,-0.8696159720420837,-0.0002439999952912,4.760000228881836,20.51000022888184,-24.237499237060547
7.25650590571521,-0.3821039795875549,-0.8896239995956421,0.0068319998681545,-1.75,17.90250015258789,-28.612499237060547
7.276719014087676,-0.5119119882583618,-1.1143479347229004,-0.2622999846935272,-13.335000038146973,11.199999809265137,-21.84000015258789
7.296932122460142,-0.3035359978675842,-1.3105239868164062,-0.0678320005536079,-5.022500038146973,0.7524999976158142,-2.1700000762939453
7.317145230832607,-0.1158999949693679,-1.2004799842834473,-0.0409919992089271,12.61750030517578,-9.55500030517578,13.142499923706056
7.337358339205073,0.0278159994632005,-0.9630680084228516,-0.0885719954967498,28.104999542236328,-4.357500076293945,24.53499984741211
7.357571447577539,0.0910120010375976,-0.750544011592865,-0.1969079971313476,33.72249984741211,4.847499847412109,21.82250022888184
7.377784555950004,0.0919879972934722,-0.7498120069503784,-0.285968005657196,18.58500099182129,17.412500381469727,14.682499885559082
7.39799766432247,0.0378200002014637,-0.9096319675445556,-0.2398519963026046,4.199999809265137,34.212501525878906,11.077500343322754
7.418210772694936,-0.0531919971108436,-1.006011962890625,-0.1146799996495246,-1.7324999570846558,36.33000183105469,-0.875
7.4384238810674015,-0.1790959984064102,-0.95306396484375,-0.0641719996929168,2.484999895095825,41.10750198364258,-10.412500381469728
7.458636989439867,-0.301827996969223,-0.9315919876098632,-0.0285479985177516,-2.625,34.22999954223633,-20.475000381469727
7.478850097812333,-0.3882039785385132,-0.8847439885139465,-0.0732000023126602,0.7524999976158142,27.352500915527344,-23.78249931335449
7.499063206184799,-0.4631119966506958,-0.8903560042381287,-0.1605519950389862,-5.022500038146973,13.387499809265137,-22.5049991607666
7.519276314557264,-0.4384679794311523,-1.0130879878997805,-0.2025199979543686,-9.3100004196167,-4.690000057220459,-15.225000381469728
7.53948942292973,-0.3401359915733337,-1.175104022026062,-0.1766559928655624,-2.6075000762939453,-18.5674991607666,-4.690000057220459
7.559702531302196,-0.2271640002727508,-1.208043932914734,-0.1586000025272369,10.02750015258789,-29.01499938964844,5.617499828338623
7.579915639674661,-0.0907679945230484,-1.0965359210968018,-0.1183400005102157,17.6924991607666,-36.76750183105469,9.397500038146973
7.600128748047127,0.0290360003709793,-1.0035719871520996,-0.0980879962444305,19.31999969482422,-31.07999992370605,10.43000030517578
7.620341856419593,0.0492879971861839,-0.9071919918060304,-0.0805199965834617,15.697500228881836,-11.917500495910645,1.4700000286102295
7.6405549647920585,-0.0097599998116493,-0.8874279856681824,-0.0553879998624324,12.197500228881836,-2.9749999046325684,-7.507500171661377
7.660768073164524,-0.0800319984555244,-0.9345200061798096,-0.0219599995762109,10.202500343322754,1.9600000381469729,-10.675000190734863
7.68098118153699,-0.1339560002088546,-0.9206119775772096,-0.0292799994349479,10.359999656677246,2.065000057220459,-9.520000457763672
7.701194289909456,-0.2098399996757507,-0.9081679582595824,-0.0243999995291233,8.855000495910645,-0.2100000083446502,-2.414999961853028
7.721407398281921,-0.2662039995193481,-0.915731966495514,0.0161039996892213,5.617499828338623,-4.025000095367432,7.595000267028809
7.741620506654387,-0.2881639897823334,-1.1968200206756592,-0.0029279999434947,-17.02750015258789,-4.007500171661377,2.887500047683716
7.761833615026853,-0.1551840007305145,-1.0452959537506104,-0.0278159994632005,-4.952499866485596,-12.337499618530272,-3.115000009536743
7.7820467233993185,-0.1066280007362365,-0.9508680105209352,-0.0778359994292259,2.6075000762939453,-8.574999809265137,-1.3825000524520874
7.802259831771784,-0.0631959959864616,-0.9764879941940308,-0.0478239990770816,0.1225000023841857,-3.4124999046325684,-1.5049999952316284
7.82247294014425,-0.0595359988510608,-0.9891759753227234,-0.0431879982352256,2.817500114440918,3.552500009536743,-2.1875
7.842686048516716,-0.0500199981033802,-0.9757559895515442,-0.052216000854969,3.849999904632568,7.139999866485596,-3.6575000286102295
7.862899156889181,-0.0548999980092048,-0.9925919771194458,-0.0348920002579689,2.572499990463257,9.170000076293944,-4.357500076293945
7.883112265261647,-0.0751519948244094,-0.982587993144989,-0.0461159981787204,3.202500104904175,11.147500038146973,-4.042500019073486
7.903325373634113,-0.1017479971051216,-0.9757559895515442,-0.0348920002579689,2.2225000858306885,11.2524995803833,-3.4124999046325684
7.923538482006578,-0.1276119947433471,-0.9845399856567384,-0.0173240005970001,1.715000033378601,11.44499969482422,-2.0299999713897705
7.943751590379044,-0.1539639979600906,-0.9884439706802368,0.0002439999952912,1.5049999952316284,10.9375,-1.1200000047683716
7.96396469875151,-0.1715319901704788,-0.9847840070724488,0.0002439999952912,1.5750000476837158,9.3100004196167,-0.7350000143051147
7.9841778071239755,-0.1725080013275146,-0.9757559895515442,-0.0168359987437725,1.9075000286102293,6.772500038146973,-0.4550000131130218
8.004390915496442,-0.1686040014028549,-0.9718520045280457,-0.0278159994632005,1.2949999570846558,4.585000038146973,-0.6299999952316284
8.024604023868909,-0.1525000035762787,-0.9686799645423888,-0.0431879982352256,0.1400000005960464,2.782500028610229,-0.4900000095367431
8.044817132241375,-0.153231993317604,-0.9598959684371948,-0.0605119988322258,-2.432500123977661,1.3125,-1.1375000476837158
8.065030240613842,-0.1341999918222427,-0.973315954208374,-0.0553879998624324,-5.949999809265137,-0.8224999904632568,-1.5575000047683716
8.085243348986308,-0.1263919919729232,-0.9923479557037354,-0.0588039979338645,-7.28000020980835,-1.225000023841858,-1.277500033378601
8.105456457358775,-0.1115079969167709,-1.0025960206985474,-0.057583998888731,-6.387499809265137,-2.694999933242798,-1.3125
8.125669565731242,-0.1149239987134933,-1.007964015007019,-0.0590479969978332,-5.267499923706055,-2.484999895095825,-0.962499976158142
8.145882674103708,-0.1056519970297813,-1.010159969329834,-0.0507519990205764,-3.3600001335144043,-2.257499933242798,-0.4200000166893005
8.166095782476175,-0.1097999960184097,-0.9943000078201294,-0.047580000013113,-2.257499933242798,-1.7675000429153442,-0.4200000166893005
8.186308890848641,-0.1212679967284202,-0.9850279688835144,-0.0480679981410503,-2.887500047683716,-0.9800000190734864,-0.7350000143051147
8.206521999221108,-0.1266359984874725,-0.9896639585494996,-0.0339160002768039,-3.972500085830689,-0.5950000286102295,-1.0325000286102295
8.226735107593575,-0.1234639957547187,-1.0191879272460938,-0.0287919994443655,-3.3600001335144043,-1.0325000286102295,-0.2275000065565109
8.246948215966041,-0.1315159946680069,-0.9964959621429444,-0.0414799973368644,0.4200000166893005,-1.1375000476837158,0.1050000041723251
8.267161324338508,-0.1312720030546188,-0.985759973526001,-0.0536799989640712,2.450000047683716,-1.347499966621399,0.0175000000745058
8.287374432710974,-0.128831997513771,-0.990395963191986,-0.0556319989264011,3.307500123977661,-1.4175000190734863,-0.2100000083446502
8.307587541083441,-0.1276119947433471,-0.9860039949417114,-0.0548999980092048,3.7274999618530273,-1.5924999713897705,-0.5950000286102295
8.327800649455908,-0.1266359984874725,-0.9791719913482666,-0.0453839972615242,2.817500114440918,-1.662500023841858,-0.7524999976158142
8.348013757828374,-0.1305399984121322,-0.9708759784698486,-0.0385520011186599,1.1549999713897705,-2.0299999713897705,-1.0325000286102295
8.36822686620084,-0.1307840049266815,-0.9823439717292786,-0.0397720001637935,-1.3125,-2.134999990463257,-0.8224999904632568
8.388439974573307,-0.13298000395298,-0.9923479557037354,-0.0366000011563301,-1.6449999809265137,-1.8725000619888303,-0.4375
8.408653082945774,-0.1334680020809173,-0.9891759753227234,-0.0358680002391338,-1.3300000429153442,-2.0824999809265137,-0.5600000023841858
8.42886619131824,-0.1327359974384308,-0.9945439696311952,-0.0358680002391338,-1.0850000381469729,-1.8550000190734863,-0.5950000286102295
8.449079299690707,-0.1298079937696457,-0.9916160106658936,-0.0348920002579689,-0.1574999988079071,-2.572499990463257,-0.7875000238418579
8.469292408063174,-0.1259039938449859,-0.97599995136261,-0.0453839972615242,0.6825000047683716,-2.8350000381469727,-0.7350000143051147
8.48950551643564,-0.128831997513771,-0.9791719913482666,-0.0446520000696182,0.2100000083446502,-2.275000095367432,-0.1400000005960464
8.509718624808107,-0.1368840038776397,-1.0008879899978638,-0.0509959980845451,-0.7524999976158142,-1.5575000047683716,0.0700000002980232
8.529931733180574,-0.1320039927959442,-1.0052800178527832,-0.0527039989829063,-0.4375,-1.5750000476837158,-0.5249999761581421
8.55014484155304,-0.128831997513771,-1.0030839443206787,-0.0551439970731735,0.1400000005960464,-1.277500033378601,-0.8575000166893005
8.570357949925507,-0.1239520013332367,-1.0016199350357056,-0.0595359988510608,1.1549999713897705,-0.7524999976158142,-0.9275000095367432
8.590571058297973,-0.1239520013332367,-0.985759973526001,-0.061243999749422,2.3975000381469727,-0.1574999988079071,-0.6825000047683716
8.61078416667044,-0.1227319985628128,-0.9821000099182128,-0.0563639998435974,1.75,0.262499988079071,-0.6650000214576721
8.630997275042906,-0.1224879994988441,-0.9869799613952636,-0.0570959970355033,0.8224999904632568,1.0499999523162842,-0.9449999928474426
8.651210383415373,-0.1190719977021217,-0.9879559874534608,-0.0595359988510608,0.2800000011920929,1.4350000619888306,-0.875
8.67142349178784,-0.1212679967284202,-0.987223982810974,-0.0585599988698959,-0.1924999952316284,1.8550000190734863,-0.9100000262260436
8.691636600160306,-0.1276119947433471,-0.9813680052757264,-0.0487999990582466,-0.2975000143051147,2.1700000762939453,-1.2424999475479126
8.711849708532773,-0.1300520002841949,-0.9781959652900696,-0.042943999171257,-0.4025000035762787,2.327500104904175,-1.4874999523162842
8.73206281690524,-0.1256600022315979,-0.9781959652900696,-0.046604000031948,-0.4900000095367431,2.327500104904175,-1.1375000476837158
8.752275925277706,-0.1283439993858337,-0.9838079810142516,-0.042943999171257,-1.627500057220459,1.6449999809265137,-0.8924999833106995
8.772489033650173,-0.1261480003595352,-0.9833199977874756,-0.0409919992089271,-2.2925000190734863,0.8224999904632568,-0.6299999952316284
8.79270214202264,-0.1198039948940277,-0.9808799624443054,-0.0509959980845451,-3.132499933242798,0.7350000143051147,-0.3849999904632568
8.812915250395106,-0.1178519949316978,-0.9879559874534608,-0.0551439970731735,-3.762500047683716,0.5774999856948853,-0.2100000083446502
8.833128358767572,-0.1149239987134933,-0.9925919771194458,-0.0531919971108436,-3.0274999141693115,0.8924999833106995,-0.4900000095367431
8.853341467140039,-0.1166319996118545,-0.9957639575004578,-0.0531919971108436,-3.0625,0.9800000190734864,-0.5600000023841858
8.873554575512506,-0.1183400005102157,-0.998203992843628,-0.0588039979338645,-2.6600000858306885,1.1024999618530271,-0.5425000190734863
8.893767683884972,-0.1146799996495246,-1.0003999471664429,-0.0631959959864616,-2.0824999809265137,1.5750000476837158,-0.332500010728836
8.913980792257439,-0.1154119968414306,-1.0077199935913086,-0.066611997783184,-1.4175000190734863,2.5374999046325684,-0.2450000047683715
8.934193900629905,-0.1166319996118545,-1.007475972175598,-0.0690519958734512,-0.4375,3.377500057220459,-0.3849999904632568
8.954407009002372,-0.1202920004725456,-0.9977160096168518,-0.0668559968471527,0.7175000309944153,3.7100000381469727,-0.5074999928474426
8.974620117374839,-0.1219999939203262,-0.9913719892501832,-0.0600240007042884,1.2599999904632568,3.762500047683716,-0.5074999928474426
8.994833225747305,-0.1256600022315979,-0.9894199967384338,-0.0588039979338645,1.4874999523162842,3.622499942779541,-0.4550000131130218
9.015046334119772,-0.1312720030546188,-0.9855159521102904,-0.0568519979715347,1.715000033378601,3.447499990463257,-0.4025000035762787
9.035259442492238,-0.1278560012578964,-0.97843998670578,-0.0551439970731735,1.715000033378601,3.640000104904175,-0.5074999928474426
9.055472550864705,-0.1259039938449859,-0.9745360016822816,-0.0514839999377727,0.9975000023841858,3.622499942779541,-0.6825000047683716
9.075685659237172,-0.1254159957170486,-0.9789279699325562,-0.052216000854969,0.3499999940395355,3.3949999809265137,-0.6650000214576721
9.095898767609638,-0.1256600022315979,-0.9877119660377502,-0.0607559978961944,-1.1024999618530271,3.202500104904175,-0.1574999988079071
9.116111875982105,-0.1295640021562576,-0.9921039938926696,-0.0595359988510608,-1.680000066757202,2.799999952316284,-0.1400000005960464
9.136324984354571,-0.1317600011825561,-0.9896639585494996,-0.0573399998247623,-1.715000033378601,2.134999990463257,-0.2100000083446502
9.156538092727038,-0.1315159946680069,-0.9862479567527772,-0.0605119988322258,-1.5225000381469729,1.8025000095367432,-0.0350000001490116
9.176751201099504,-0.1266359984874725,-0.9869799613952636,-0.0653920024633407,-1.277500033378601,1.4175000190734863,0.262499988079071
9.196964309471971,-0.124439999461174,-0.995519995689392,-0.062219999730587,-1.5225000381469729,1.2949999570846558,0.3849999904632568
9.217177417844438,-0.1212679967284202,-0.9960079789161682,-0.0561200007796287,-1.8025000095367432,0.9100000262260436,0.1225000023841857
9.237390526216904,-0.1190719977021217,-0.9916160106658936,-0.0573399998247623,-1.5399999618530271,0.4375,-0.1225000023841857
9.25760363458937,-0.124439999461174,-0.9869799613952636,-0.0583159998059272,-1.3300000429153442,0.3149999976158142,0.1225000023841857
9.277816742961837,-0.1271239966154098,-0.994055986404419,-0.0536799989640712,-1.277500033378601,-0.1400000005960464,0.2800000011920929
9.298029851334304,-0.124439999461174,-0.9906399846076964,-0.0553879998624324,-0.5950000286102295,-0.6299999952316284,0.2100000083446502
9.31824295970677,-0.119559995830059,-0.9823439717292786,-0.0570959970355033,-0.4550000131130218,-0.8050000071525574,0.262499988079071
9.338456068079237,-0.1158999949693679,-0.981123983860016,-0.0578279979526996,-0.8400000333786011,-0.4200000166893005,0.4724999964237213
9.358669176451704,-0.1127279996871948,-0.9852719902992249,-0.0568519979715347,-1.5924999713897705,-0.3849999904632568,0.5425000190734863
9.37888228482417,-0.1180959939956665,-0.9794159531593324,-0.0556319989264011,-2.012500047683716,-0.2100000083446502,0.5074999928474426
9.399095393196637,-0.1207799986004829,-0.981123983860016,-0.0580720007419586,-2.887500047683716,-0.0525000020861625,0.612500011920929
9.419308501569104,-0.1193159967660904,-0.9821000099182128,-0.0600240007042884,-3.867500066757202,0.1400000005960464,0.9100000262260436
9.43952160994157,-0.1110199987888336,-0.9850279688835144,-0.0617319978773593,-4.09499979019165,0.3849999904632568,1.2424999475479126
9.459734718314037,-0.1183400005102157,-0.9886879920959472,-0.0617319978773593,-4.637499809265137,0.5600000023841858,0.962499976158142
9.479947826686503,-0.124439999461174,-0.9874680042266846,-0.0570959970355033,-4.672500133514404,0.7175000309944153,0.7524999976158142
9.50016093505897,-0.1273680031299591,-0.986735999584198,-0.057583998888731,-4.900000095367432,0.612500011920929,0.699999988079071
9.520374043431437,-0.1241960003972053,-0.986735999584198,-0.0614879988133907,-4.707499980926514,0.5774999856948853,0.8224999904632568
9.540587151803903,-0.1224879994988441,-0.98990797996521,-0.0651479959487915,-4.392499923706055,0.5074999928474426,0.9800000190734864
9.56080026017637,-0.1173639968037605,-0.9894199967384338,-0.0634399950504303,-4.235000133514404,0.3675000071525574,1.277500033378601
9.581013368548836,-0.118827998638153,-0.9906399846076964,-0.0592919997870922,-4.09499979019165,0.5074999928474426,1.4350000619888306
9.601226476921303,-0.1166319996118545,-0.9850279688835144,-0.0597799979150295,-3.692500114440918,0.6650000214576721,1.3825000524520874
9.62143958529377,-0.1215119957923889,-0.9847840070724488,-0.062219999730587,-3.884999990463257,0.8575000166893005,1.2599999904632568
9.641652693666236,-0.1261480003595352,-0.9842959642410278,-0.0597799979150295,-4.007500171661377,0.6474999785423279,1.3650000095367432
9.661865802038703,-0.1237079948186874,-0.981611967086792,-0.0617319978773593,-4.199999809265137,0.4724999964237213,1.6100000143051147
9.68207891041117,-0.1190719977021217,-0.9818559885025024,-0.062219999730587,-4.480000019073486,0.4200000166893005,1.8025000095367432
9.702292018783636,-0.1154119968414306,-0.9845399856567384,-0.0636840015649795,-4.900000095367432,-0.0350000001490116,1.662500023841858
9.722505127156102,-0.1178519949316978,-0.987223982810974,-0.0641719996929168,-4.987500190734863,0.1050000041723251,1.6100000143051147
9.742718235528569,-0.1219999939203262,-0.9813680052757264,-0.0605119988322258,-4.8125,-0.262499988079071,1.4350000619888306
9.762931343901036,-0.1251720041036605,-0.9781959652900696,-0.0617319978773593,-4.777500152587891,-0.3149999976158142,1.5225000381469729
9.783144452273502,-0.1268799901008606,-0.9772199988365172,-0.0595359988510608,-5.425000190734863,-0.5600000023841858,1.662500023841858
9.803357560645969,-0.1229759976267814,-0.9757559895515442,-0.0588039979338645,-5.862500190734863,-0.8400000333786011,2.047499895095825
9.823570669018435,-0.1202920004725456,-0.97843998670578,-0.062219999730587,-6.667500019073486,-0.9100000262260436,2.275000095367432
9.843783777390902,-0.115167997777462,-0.9781959652900696,-0.0646599978208541,-7.105000019073486,-0.9275000095367432,2.380000114440918
9.863996885763369,-0.1134599968791008,-0.9794159531593324,-0.0697840005159378,-7.595000267028809,-0.5600000023841858,2.362499952316284
9.884209994135835,-0.1141919940710067,-0.9794159531593324,-0.0700279995799064,-7.647500038146973,-0.0525000020861625,2.380000114440918
9.904423102508302,-0.1137039959430694,-0.9764879941940308,-0.0675880014896392,-7.840000152587891,0.4200000166893005,2.345000028610229
9.924636210880768,-0.1168759986758232,-0.9745360016822816,-0.0710039958357811,-8.225000381469727,1.0499999523162842,2.555000066757202
9.944849319253235,-0.119559995830059,-0.97599995136261,-0.0712479948997497,-8.8725004196167,1.3300000429153442,2.6075000762939453
9.965062427625702,-0.1198039948940277,-0.9750239849090576,-0.0688079968094825,-9.292500495910645,1.6974999904632568,2.747499942779541
9.985275535998168,-0.1202920004725456,-0.9706319570541382,-0.0680759996175766,-9.572500228881836,1.8200000524520876,2.8350000381469727
10.005488644370635,-0.1251720041036605,-0.9679479598999025,-0.0736880004405975,-9.957500457763672,2.012500047683716,3.0274999141693115
10.025701752743101,-0.1251720041036605,-0.9630680084228516,-0.0749079957604408,-11.024999618530272,2.047499895095825,3.552500009536743
10.045914861115568,-0.1246839985251426,-0.9603840112686156,-0.0773480013012886,-11.760000228881836,1.8200000524520876,3.902499914169312
10.066127969488035,-0.1254159957170486,-0.9594079852104188,-0.0749079957604408,-12.739999771118164,1.662500023841858,4.147500038146973
10.086341077860501,-0.1300520002841949,-0.958675980567932,-0.0683199986815452,-14.052499771118164,1.5575000047683716,4.077499866485596
10.106554186232968,-0.1332239955663681,-0.9518439769744872,-0.0775920003652572,-14.892499923706056,1.8725000619888303,4.09499979019165
10.126767294605434,-0.1290760040283203,-0.9528200030326844,-0.0836919993162155,-15.837499618530272,2.0299999713897705,4.53249979019165
10.146980402977901,-0.1249279975891113,-0.9557479619979858,-0.0936959981918335,-16.729999542236328,2.484999895095825,4.829999923706055
10.167193511350368,-0.1259039938449859,-0.9584319591522216,-0.1039439961314201,-17.184999465942383,2.887500047683716,5.022500038146973
10.187406619722834,-0.1276119947433471,-0.9559919834136964,-0.0988200008869171,-17.850000381469727,2.6424999237060547,5.005000114440918
10.2076197280953,-0.13468798995018,-0.9486719965934752,-0.1034559980034828,-18.357500076293945,3.220000028610229,4.8125
10.227832836467767,-0.1417640000581741,-0.9367159605026244,-0.1132159978151321,-19.040000915527344,3.640000104904175,4.707499980926514
10.248045944840234,-0.1359079927206039,-0.9340319633483888,-0.1202920004725456,-19.809999465942383,4.077499866485596,5.057499885559082
10.2682590532127,-0.1317600011825561,-0.9293959736824036,-0.1222440004348754,-21.087499618530277,4.777500152587891,5.775000095367432
10.288472161585167,-0.1293199956417083,-0.9298839569091796,-0.1224879994988441,-22.78499984741211,5.389999866485596,6.527500152587891
10.308685269957634,-0.1315159946680069,-0.933299958705902,-0.1283439993858337,-24.850000381469727,6.002500057220459,6.965000152587891
10.3288983783301,-0.1417640000581741,-0.9303719997406006,-0.1341999918222427,-26.25,6.159999847412109,6.947500228881836
10.349111486702567,-0.1520119905471801,-0.9189040064811708,-0.143227994441986,-27.107500076293945,6.142499923706055,7.332499980926514
10.369324595075033,-0.1603080034255981,-0.9123159646987916,-0.1498159915208816,-27.912500381469727,6.159999847412109,7.612500190734863
10.3895377034475,-0.1586000025272369,-0.8942599892616272,-0.1586000025272369,-29.102500915527344,5.512499809265137,7.402500152587891
10.409750811819967,-0.1578679978847503,-0.8908439874649048,-0.1708000004291534,-31.762500762939453,5.460000038146973,7.927500247955322
10.429963920192433,-0.1568920016288757,-0.8898679614067078,-0.1729959994554519,-34.52750015258789,5.110000133514404,8.470000267028809
10.4501770285649,-0.1559159904718399,-0.8891359567642212,-0.1793399900197982,-37.345001220703125,4.462500095367432,8.855000495910645
10.470390136937366,-0.1583559960126876,-0.8891359567642212,-0.1786080002784729,-39.74250030517578,3.587500095367432,9.3100004196167
10.490603245309833,-0.1676279902458191,-0.8925519585609436,-0.1788519918918609,-41.66749954223633,2.1875,9.625
10.5108163536823,-0.1815359890460968,-0.9106079936027528,-0.1864160001277923,-43.8025016784668,0.875,9.047499656677246
10.531029462054766,-0.1893439888954162,-0.918172001838684,-0.2047159969806671,-45.290000915527344,-0.3149999976158142,7.962500095367432
10.551242570427233,-0.1893439888954162,-0.92085599899292,-0.2159399986267089,-46.375,-0.9100000262260436,7.909999847412109
10.5714556787997,-0.1712879985570907,-0.9103639721870422,-0.2186239957809448,-47.057498931884766,-2.065000057220459,9.047499656677246
10.591668787172166,-0.1651879996061325,-0.8884040117263794,-0.2181359976530075,-47.86249923706055,-2.765000104904175,11.042500495910645
10.611881895544633,-0.1534759998321533,-0.8661999702453613,-0.2095959931612014,-49.192501068115234,-3.762500047683716,13.19499969482422
10.6320950039171,-0.1478639990091323,-0.8225240111351013,-0.2200879901647567,-51.415000915527344,-4.130000114440918,17.657499313354492
10.652308112289566,-0.1586000025272369,-0.7971479892730713,-0.2217959910631179,-52.5,-3.815000057220459,19.792499542236328
10.672521220662032,-0.1464000046253204,-0.7673799991607666,-0.2193560004234314,-52.272499084472656,-4.707499980926514,21.64750099182129
10.692734329034499,-0.1517679989337921,-0.7388319969177246,-0.224480003118515,-52.95500183105469,-4.252500057220459,24.0625
10.712947437406966,-0.1583559960126876,-0.7171159982681274,-0.2308239936828613,-54.810001373291016,-4.760000228881836,26.70499992370605
10.733160545779432,-0.1515239924192428,-0.692471981048584,-0.2298479974269867,-55.86000061035156,-5.985000133514404,30.012500762939453
10.753373654151899,-0.1493279933929443,-0.667095959186554,-0.2420479953289032,-56.97999954223633,-6.054999828338623,33.040000915527344
10.773586762524365,-0.1444479972124099,-0.6414759755134583,-0.253028005361557,-57.92499923706055,-6.195000171661377,35.77000045776367
10.793799870896832,-0.1620160043239593,-0.606827974319458,-0.2928000092506408,-58.625,-6.579999923706055,37.869998931884766
10.814012979269298,-0.1366399973630905,-0.5838919878005981,-0.2898719906806946,-60.602500915527344,-7.542500019073486,39.025001525878906
10.834226087641765,-0.1895879954099655,-0.5729119777679443,-0.2925559878349304,-61.96749877929688,-8.78499984741211,41.70249938964844
10.854439196014232,-0.2071560025215149,-0.5821840167045593,-0.3642919957637787,-61.26750183105469,-17.045000076293945,45.9375
10.874652304386698,-0.2010560035705566,-0.5524159669876099,-0.4370039999485016,-56.34999847412109,-23.292499542236328,52.48250198364258
10.894865412759165,-0.1546960026025772,-0.5638839602470398,-0.3672199845314026,-61.70500183105469,-27.49250030517578,57.27750015258789
10.915078521131631,0.0092719998210668,-0.647819995880127,-0.2664479911327362,-72.57250213623047,-19.61750030517578,59.709999084472656
10.935291629504098,0.0417240001261234,-0.6780759692192078,-0.3123199939727783,-83.70249938964844,8.680000305175781,51.834999084472656
10.955504737876565,-0.0558759979903698,-0.7022320032119751,-0.3206160068511963,-82.44249725341797,3.4825000762939453,49.42000198364258
10.975717846249031,-0.1271239966154098,-0.636352002620697,-0.3154920041561126,-81.05999755859375,1.2424999475479126,38.8849983215332
10.995930954621498,-0.2564440071582794,-0.5807200074195862,-0.3211039900779724,-78.19000244140625,5.372499942779541,35.227500915527344
11.016144062993964,-0.2052039951086044,-0.4348079860210418,-0.2537599802017212,-64.13749694824219,0.612500011920929,41.70249938964844
11.036357171366431,-0.1593319922685623,-0.1229759976267814,-0.3852759897708893,-44.76499938964844,7.087500095367432,44.747501373291016
11.056570279738898,-0.0680759996175766,0.7878760099411011,-0.0854000002145767,40.21500015258789,-14.454999923706056,38.81499862670898
11.076783388111364,-0.2359479963779449,0.8249639868736267,0.1698240041732788,-110.23249816894533,2.870000123977661,37.08250045776367
11.09699649648383,-0.3908880054950714,-0.8937720060348511,-0.047335997223854,-322.1575012207031,34.96500015258789,2.765000104904175
11.117209604856297,-0.3655119836330414,-1.474735975265503,-0.2618120014667511,-230.28250122070312,-27.77250099182129,13.19499969482422
11.137422713228764,-0.6563599705696106,0.1790959984064102,-0.5826719999313354,-83.6675033569336,-45.16749954223633,90.14250183105467
11.15763582160123,-1.7153199911117554,-0.0397720001637935,-1.838539958000183,-163.76499938964844,18.899999618530277,125.63249969482422
11.177848929973697,-0.9608719944953918,1.6548079252243042,-3.110512018203736,-163.48500061035156,258.9825134277344,282.99249267578125
11.198062038346164,0.3984519839286804,-0.0356239974498748,-2.39412784576416,-174.63250732421875,-272.6499938964844,16.25749969482422
11.21827514671863,-0.6283000111579895,0.7083320021629333,-2.134755849838257,-218.1725006103516,-272.9125061035156,47.14500045776367
11.238488255091097,-0.9882000088691713,1.1670520305633545,-2.545408010482788,-272.614990234375,-148.22500610351562,43.68000030517578
11.258701363463564,-1.4576560258865356,0.3028039932250976,-2.1847760677337646,-375.4800109863281,-40.057498931884766,80.62249755859375
11.27891447183603,-2.16379189491272,-0.5987759828567505,-1.8541560173034668,-438.8475036621094,-63.90999984741211,380.4500122070313
11.299127580208497,-1.3737199306488037,-0.2535159885883331,-1.1692479848861694,-160.42250061035156,-20.020000457763672,263.0425109863281
11.319340688580963,-0.7154079675674438,0.2105719894170761,-1.0562759637832642,71.36499786376953,-27.177499771118164,186.8125
11.33955379695343,0.1739719957113266,0.9398880004882812,-0.2937760055065155,237.0200042724609,-80.32499694824219,217.50750732421875
11.359766905325897,-0.3630719780921936,0.7056480050086975,-0.3867399990558624,340.7774963378906,-6.037499904632568,204.15499877929688
11.379980013698363,-0.1778759956359863,1.1538759469985962,-1.5264639854431152,237.3175048828125,-229.35499572753903,-139.40499877929688
11.40019312207083,0.2171600013971328,0.9869799613952636,-1.111907958984375,219.2400054931641,-363.5975036621094,-157.14999389648438
11.420406230443296,0.1790959984064102,0.9596520066261292,-0.2400960028171539,156.5550079345703,-48.47499847412109,-49.10499954223633
11.440619338815763,-0.2064239978790283,0.7349280118942261,-0.3311080038547516,84.0875015258789,201.80999755859372,2.1524999141693115
11.46083244718823,-0.4950760006904602,0.1822679936885833,-0.4340759813785553,-44.79999923706055,134.88999938964844,0.5600000023841858
11.481045555560696,-0.3474559783935547,0.3398919999599457,-0.3806400001049042,-4.164999961853027,-4.427500247955322,-11.8125
11.501258663933163,-0.2120359987020492,0.3398919999599457,-0.2720600068569183,7.664999961853027,3.377500057220459,-18.217500686645508
11.52147177230563,-0.2337519973516464,0.2020319998264312,-0.3037799894809723,18.270000457763672,31.7450008392334,-3.430000066757202
11.541684880678096,-0.2291159927845001,0.1661639958620071,-0.4218759834766388,35.36750030517578,35.90999984741211,-3.3600001335144043
11.561897989050562,-0.2281399965286255,0.6751480102539062,-0.785923957824707,67.35749816894531,49.31499862670898,5.197500228881836
11.582111097423029,-0.1708000004291534,0.5331400036811829,-0.5655919909477234,154.4199981689453,270.864990234375,-32.7599983215332
11.602324205795496,-0.5960919857025146,0.3823480010032654,-1.1128839254379272,163.4149932861328,330.9425048828125,-81.55000305175781
11.622537314167962,-0.5343599915504456,0.2422920018434524,-0.7019879817962646,96.54750061035156,-13.282500267028809,-10.850000381469728
11.642750422540429,-0.6583119630813599,0.2801119983196258,-0.7776280045509338,0.0350000001490116,-52.92000198364258,-4.147500038146973
11.662963530912895,-0.6534320116043091,0.3523359894752502,-0.8295999765396118,9.887499809265137,-55.369998931884766,1.4700000286102295
11.683176639285362,-0.3830800056457519,0.4284639954566955,-0.8010519742965698,23.905000686645508,-46.35750198364258,1.2074999809265137
11.703389747657829,-0.3518480062484741,0.3311080038547516,-1.0330959558486938,36.24250030517578,-18.287500381469727,0.612500011920929
11.723602856030295,-0.3703919947147369,0.2742559909820556,-1.1372839212417605,23.729999542236328,-0.8224999904632568,-0.1924999952316284
11.743815964402762,-0.4091880023479461,0.2803559899330139,-1.2212200164794922,14.087499618530272,4.427500247955322,-1.7675000429153442
11.764029072775228,-0.541923999786377,0.2498559951782226,-1.1204479932785034,15.225000381469728,5.284999847412109,-5.127500057220459
11.784242181147695,-0.5853559970855713,0.187391996383667,-1.1397240161895752,45.727500915527344,8.382499694824219,-8.27750015258789
11.804455289520162,-0.4213880002498626,0.0224479995667934,-1.1716879606246948,77.24500274658203,17.832500457763672,-10.56999969482422
11.824668397892628,-0.416020005941391,-0.0912560001015663,-1.135087966918945,86.43250274658203,21.280000686645508,-7.630000114440918
11.844881506265095,-0.4226079881191253,-0.0568519979715347,-0.933299958705902,70.22750091552734,24.325000762939453,-3.815000057220459
11.865094614637561,-0.3323279917240143,-0.0980879962444305,-0.8896239995956421,68.82749938964844,39.77750015258789,-14.927499771118164
11.885307723010028,-0.2920680046081543,-0.0963799953460693,-0.8718119859695435,67.07749938964844,43.15499877929688,-18.042499542236328
11.905520831382495,-0.2654719948768616,-0.118827998638153,-0.8098359704017639,59.0625,43.24250030517578,-18.53249931335449
11.925733939754961,-0.2742559909820556,-0.1178519949316978,-0.7583519816398621,50.24250030517578,36.24250030517578,-13.387499809265137
11.945947048127428,-0.2945079803466797,-0.1703120023012161,-0.7639639973640442,39.165000915527344,28.59499931335449,-11.34000015258789
11.966160156499894,-0.2967039942741394,-0.1505479961633682,-0.8127639889717102,27.212499618530277,25.1299991607666,-9.59000015258789
11.98637326487236,-0.2962159812450409,-0.1671399921178817,-0.8493639826774597,25.58500099182129,22.24250030517578,-8.119999885559082
12.006586373244827,-0.2862119972705841,-0.1703120023012161,-0.8988959789276123,18.165000915527344,19.98500061035156,-6.650000095367432
12.026799481617294,-0.297435998916626,-0.1900759935379028,-0.9274439811706544,14.630000114440918,16.59000015258789,-5.53000020980835
12.04701258998976,-0.2957279980182647,-0.1969079971313476,-0.9657520055770874,7.105000019073486,14.47249984741211,-4.182499885559082
12.067225698362227,-0.2808440029621124,-0.2012999951839447,-0.9947879910469056,0.3499999940395355,12.600000381469728,-3.307500123977661
12.087438806734694,-0.2669360041618347,-0.1964199990034103,-1.0008879899978638,-3.115000009536743,8.680000305175781,-2.1700000762939453
12.10765191510716,-0.2654719948768616,-0.1893439888954162,-1.0050359964370728,-4.322500228881836,5.320000171661377,-1.3300000429153442
12.127865023479627,-0.2669360041618347,-0.1844639927148819,-1.0082080364227295,-3.972500085830689,3.0625,-0.8924999833106995
12.148078131852094,-0.264739990234375,-0.1771439909934997,-1.0152839422225952,-2.852499961853028,1.4175000190734863,-0.3849999904632568
12.16829124022456,-0.2613239884376526,-0.1744599938392639,-1.0111359357833862,-1.6100000143051147,0.1050000041723251,0.1574999988079071
12.188504348597027,-0.2652280032634735,-0.1764120012521743,-0.9989359974861144,-0.3675000071525574,-1.627500057220459,0.6825000047683716
12.208717456969493,-0.2701079845428467,-0.1790959984064102,-0.9830759763717652,0.1924999952316284,-3.552500009536743,1.225000023841858
12.22893056534196,-0.2674239873886108,-0.1708000004291534,-0.9620919823646544,-0.2100000083446502,-5.547500133514404,1.8200000524520876
12.249143673714427,-0.2671799957752228,-0.1622599959373474,-0.9374479651451112,-1.3300000429153442,-7.454999923706055,2.432500123977661
12.269356782086893,-0.2669360041618347,-0.1537199914455413,-0.9149999618530272,-2.799999952316284,-8.732500076293945,2.852499961853028
12.28956989045936,-0.2710839807987213,-0.1478639990091323,-0.900115966796875,-4.462500095367432,-9.0649995803833,3.0975000858306885
12.309782998831826,-0.2754760086536407,-0.1446920037269592,-0.892795979976654,-5.827499866485596,-8.697500228881836,3.0625
12.329996107204293,-0.2820639908313751,-0.1446920037269592,-0.8954799771308899,-6.5625,-8.1899995803833,2.922499895095825
12.35020921557676,-0.2888959944248199,-0.1468880027532577,-0.903775990009308,-6.650000095367432,-7.997499942779541,2.7300000190734863
12.370422323949226,-0.2942639887332916,-0.1481079906225204,-0.9118279814720154,-6.597499847412109,-8.172499656677246,2.7300000190734863
12.390635432321693,-0.301827996969223,-0.1471319943666458,-0.9232959747314452,-6.457499980926514,-8.3125,2.694999933242798
12.41084854069416,-0.3098799884319305,-0.1471319943666458,-0.9330559968948364,-6.090000152587891,-8.27750015258789,2.555000066757202
12.431061649066626,-0.3147599995136261,-0.1451800018548965,-0.9389119744300842,-5.652500152587891,-7.840000152587891,2.2925000190734863
12.451274757439093,-0.3203719854354858,-0.143227994441986,-0.9413520097732544,-4.340000152587891,-6.474999904632568,1.7675000429153442
12.471487865811559,-0.3233000040054321,-0.1417640000581741,-0.9376919865608216,-3.289999961853028,-5.53000020980835,1.2949999570846558
12.491700974184026,-0.3198840022087097,-0.1354199945926666,-0.9320799708366394,-2.275000095367432,-4.340000152587891,0.8224999904632568
12.511914082556492,-0.3186639845371246,-0.1354199945926666,-0.9223200082778932,-1.347499966621399,-2.992500066757202,0.3849999904632568
12.532127190928959,-0.3174439966678619,-0.1337119936943054,-0.9152439832687378,-0.5074999928474426,-1.6974999904632568,0.0350000001490116
12.552340299301425,-0.3123199939727783,-0.1332239955663681,-0.9147560000419616,0.612500011920929,-0.4724999964237213,-0.4025000035762787
12.572553407673892,-0.3108559846878052,-0.13468798995018,-0.9137799739837646,1.4874999523162842,0.962499976158142,-0.7699999809265137
12.592766516046359,-0.3076840043067932,-0.1349319964647293,-0.9064599871635436,1.7675000429153442,2.380000114440918,-0.9800000190734864
12.612979624418825,-0.3079279959201813,-0.1385920047760009,-0.9064599871635436,1.5924999713897705,3.5350000858306885,-1.0850000381469729
12.633192732791292,-0.3069519996643066,-0.1385920047760009,-0.9184159636497498,2.694999933242798,3.6050000190734863,-1.3125
12.653405841163758,-0.3037799894809723,-0.1378600001335144,-0.9250040054321288,3.132499933242798,4.269999980926514,-1.4350000619888306
12.673618949536225,-0.3025600016117096,-0.1395680010318756,-0.925491988658905,2.7300000190734863,4.690000057220459,-1.399999976158142
12.693832057908692,-0.3030479848384857,-0.1437159925699234,-0.929152011871338,2.6600000858306885,4.637499809265137,-1.347499966621399
12.714045166281158,-0.3028039932250976,-0.1451800018548965,-0.9362279772758484,2.799999952316284,4.340000152587891,-1.3300000429153442
12.734258274653625,-0.3032920062541961,-0.147376000881195,-0.9408639669418336,2.747499942779541,3.8324999809265137,-1.225000023841858
12.754471383026091,-0.3020719885826111,-0.1478639990091323,-0.9428159594535828,2.484999895095825,3.202500104904175,-0.9975000023841858
12.774684491398558,-0.2998760044574737,-0.148839995265007,-0.9413520097732544,2.2049999237060547,2.414999961853028,-0.8400000333786011
12.794897599771025,-0.3001199960708618,-0.1478639990091323,-0.9401319622993468,1.8899999856948853,1.7675000429153442,-0.699999988079071
12.815110708143491,-0.2989000082015991,-0.1483519971370697,-0.9391559958457948,1.3825000524520874,1.1375000476837158,-0.5600000023841858
12.835323816515958,-0.2971920073032379,-0.1493279933929443,-0.9347639679908752,0.9275000095367432,0.5774999856948853,-0.3849999904632568
12.855536924888424,-0.2979239821434021,-0.1493279933929443,-0.9303719997406006,0.5249999761581421,-0.0874999985098838,-0.1924999952316284
12.875750033260891,-0.2986559867858886,-0.1485960036516189,-0.93012797832489,0.1924999952316284,-0.7699999809265137,-0.0175000000745058
12.895963141633358,-0.2996319830417633,-0.1481079906225204,-0.929639995098114,-0.0350000001490116,-1.3650000095367432,0.1050000041723251
12.916176250005824,-0.3001199960708618,-0.1468880027532577,-0.9271999597549438,-0.3149999976158142,-1.784999966621399,0.2275000065565109
12.93638935837829,-0.2986559867858886,-0.1461559981107711,-0.9267119765281676,-0.5950000286102295,-2.065000057220459,0.3499999940395355
12.956602466750757,-0.301827996969223,-0.1449359953403473,-0.9262239933013916,-0.8400000333786011,-2.1524999141693115,0.4025000035762787
12.976815575123224,-0.3035359978675842,-0.1437159925699234,-0.9269559979438782,-1.0499999523162842,-2.0824999809265137,0.4550000131130218
12.99702868349569,-0.3045119941234588,-0.142984002828598,-0.9274439811706544,-1.190000057220459,-1.9774999618530276,0.4375
13.017241791868157,-0.3050000071525574,-0.1427399963140487,-0.9284200072288512,-1.2424999475479126,-1.5399999618530271,0.4200000166893005
13.037454900240624,-0.305976003408432,-0.1427399963140487,-0.9284200072288512,-1.1725000143051147,-1.0325000286102295,0.332500010728836
13.05766800861309,-0.3079279959201813,-0.143227994441986,-0.9281759858131408,-0.5074999928474426,-0.2275000065565109,0.1050000041723251
13.077881116985557,-0.3074399828910827,-0.1415199935436248,-0.9271999597549438,-0.1749999970197677,0.0874999985098838,0.0175000000745058
13.098094225358023,-0.3067080080509186,-0.1417640000581741,-0.9259799718856812,0.0175000000745058,0.4200000166893005,-0.0874999985098838
13.11830733373049,-0.3057319819927215,-0.1417640000581741,-0.924515962600708,0.0525000020861625,0.6650000214576721,-0.1924999952316284
13.138520442102957,-0.305976003408432,-0.1422519981861114,-0.9250040054321288,0.0175000000745058,0.9449999928474426,-0.2100000083446502
13.158733550475423,-0.3057319819927215,-0.1422519981861114,-0.9252479672431946,-0.0874999985098838,1.0850000381469729,-0.2800000011920929
13.17894665884789,-0.3042680025100708,-0.1424959897994995,-0.925491988658905,-0.3499999940395355,1.1375000476837158,-0.2450000047683715
13.199159767220356,-0.3030479848384857,-0.1420079916715622,-0.9276880025863647,-0.4724999964237213,1.2074999809265137,-0.2275000065565109
13.219372875592823,-0.3030479848384857,-0.1415199935436248,-0.9308599829673768,-0.4550000131130218,1.190000057220459,-0.262499988079071
13.23958598396529,-0.3054879903793335,-0.1449359953403473,-0.9298839569091796,-0.4200000166893005,1.1024999618530271,-0.2450000047683715
13.259799092337756,-0.3050000071525574,-0.1437159925699234,-0.9267119765281676,-0.332500010728836,0.8924999833106995,-0.2275000065565109
13.280012200710223,-0.3028039932250976,-0.1420079916715622,-0.9271999597549438,-0.4200000166893005,0.7875000238418579,-0.2100000083446502
13.30022530908269,-0.3015840053558349,-0.1422519981861114,-0.93012797832489,-0.2975000143051147,0.4724999964237213,-0.262499988079071
13.320438417455156,-0.3003639876842499,-0.1395680010318756,-0.9293959736824036,-0.5249999761581421,0.5950000286102295,-0.2275000065565109
13.340651525827623,-0.301827996969223,-0.1395680010318756,-0.9306159615516664,-0.8050000071525574,0.5249999761581421,-0.1400000005960464
13.36086463420009,-0.3025600016117096,-0.1407880038022995,-0.9330559968948364,-0.8224999904632568,0.3675000071525574,-0.1225000023841857
13.381077742572556,-0.3032920062541961,-0.1405439972877502,-0.9347639679908752,-0.6650000214576721,0.2275000065565109,-0.0700000002980232
13.401290850945022,-0.3028039932250976,-0.1393239945173263,-0.9347639679908752,-0.4900000095367431,0.262499988079071,-0.0525000020861625
13.421503959317489,-0.3032920062541961,-0.1407880038022995,-0.9318360090255736,-0.2975000143051147,0.1400000005960464,-0.0350000001490116
13.441717067689956,-0.3042680025100708,-0.1393239945173263,-0.929152011871338,-0.2275000065565109,0.1749999970197677,-0.0350000001490116
13.461930176062422,-0.3025600016117096,-0.1385920047760009,-0.928663969039917,-0.1749999970197677,0.2275000065565109,-0.1225000023841857
13.482143284434889,-0.3025600016117096,-0.1376159936189651,-0.928663969039917,-0.2975000143051147,0.4375,-0.1050000041723251
13.502356392807355,-0.3028039932250976,-0.1398119926452636,-0.9289079904556274,-0.3675000071525574,0.5074999928474426,-0.0874999985098838
13.522569501179822,-0.3032920062541961,-0.1405439972877502,-0.9274439811706544,-0.5074999928474426,0.5950000286102295,-0.1225000023841857
13.542782609552289,-0.3040239810943603,-0.1398119926452636,-0.9279319643974304,-0.5249999761581421,0.5425000190734863,-0.1400000005960464
13.562995717924755,-0.3032920062541961,-0.1390800029039383,-0.929639995098114,-0.5249999761581421,0.5249999761581421,-0.1050000041723251
13.583208826297222,-0.3020719885826111,-0.1378600001335144,-0.9284200072288512,-0.612500011920929,0.4200000166893005,-0.1050000041723251
13.603421934669688,-0.3023159801959991,-0.1376159936189651,-0.9276880025863647,-0.8400000333786011,0.5249999761581421,-0.1225000023841857
13.623635043042155,-0.3020719885826111,-0.1359079927206039,-0.9289079904556274,-0.9275000095367432,0.7175000309944153,-0.1574999988079071
13.643848151414621,-0.3030479848384857,-0.1368840038776397,-0.9315919876098632,-0.8924999833106995,0.875,-0.1749999970197677
13.664061259787088,-0.3020719885826111,-0.1368840038776397,-0.9330559968948364,-0.5425000190734863,0.875,-0.2275000065565109
13.684274368159555,-0.3008520007133484,-0.1356640011072158,-0.9320799708366394,-0.4375,0.9100000262260436,-0.2450000047683715
13.704487476532021,-0.3008520007133484,-0.134443998336792,-0.93012797832489,-0.332500010728836,0.9800000190734864,-0.2800000011920929
13.724700584904488,-0.3003639876842499,-0.1354199945926666,-0.9298839569091796,-0.2450000047683715,0.9975000023841858,-0.3499999940395355
13.744913693276954,-0.3006079792976379,-0.1349319964647293,-0.929639995098114,-0.262499988079071,1.1200000047683716,-0.3149999976158142
13.765126801649421,-0.3010959923267364,-0.1356640011072158,-0.93012797832489,-0.2450000047683715,1.1725000143051147,-0.3499999940395355
13.785339910021888,-0.2998760044574737,-0.1349319964647293,-0.9306159615516664,-0.2975000143051147,1.1549999713897705,-0.3149999976158142
13.805553018394354,-0.2989000082015991,-0.1354199945926666,-0.929152011871338,-0.4550000131130218,1.0674999952316284,-0.2450000047683715
13.82576612676682,-0.3001199960708618,-0.1356640011072158,-0.9293959736824036,-0.332500010728836,1.1200000047683716,-0.2100000083446502
13.845979235139287,-0.2986559867858886,-0.1339560002088546,-0.9320799708366394,-0.3499999940395355,0.9800000190734864,-0.1400000005960464
13.866192343511754,-0.2971920073032379,-0.13298000395298,-0.9347639679908752,-0.6474999785423279,0.9449999928474426,-0.1574999988079071
13.88640545188422,-0.2986559867858886,-0.1324919909238815,-0.9345200061798096,-0.8575000166893005,0.9449999928474426,-0.1225000023841857
13.906618560256687,-0.2979239821434021,-0.1341999918222427,-0.9350079894065856,-0.7875000238418579,0.8224999904632568,-0.1400000005960464
13.926831668629154,-0.2991439998149872,-0.1351760029792785,-0.9374479651451112,-0.3499999940395355,0.699999988079071,-0.1924999952316284
13.94704477700162,-0.3010959923267364,-0.1368840038776397,-0.9342759847640992,-0.1574999988079071,0.5249999761581421,-0.1749999970197677
13.967257885374087,-0.2986559867858886,-0.1334680020809173,-0.924515962600708,-0.262499988079071,0.5600000023841858,-0.1574999988079071
13.987470993746554,-0.2989000082015991,-0.1324919909238815,-0.9284200072288512,-0.612500011920929,0.5074999928474426,-0.2100000083446502
14.00768410211902,-0.2964600026607513,-0.1317600011825561,-0.93012797832489,-0.612500011920929,0.332500010728836,-0.2450000047683715
14.027897210491487,-0.2962159812450409,-0.1298079937696457,-0.9318360090255736,-0.875,0.5249999761581421,-0.2275000065565109
14.048110318863953,-0.297435998916626,-0.1307840049266815,-0.933788001537323,-0.9975000023841858,0.6299999952316284,-0.1749999970197677
14.06832342723642,-0.2993879914283752,-0.1324919909238815,-0.9342759847640992,-0.8224999904632568,0.4375,-0.1574999988079071
14.088536535608887,-0.2991439998149872,-0.130295991897583,-0.9303719997406006,-0.7699999809265137,0.5600000023841858,-0.1225000023841857
14.108749643981353,-0.2962159812450409,-0.1280999928712844,-0.9269559979438782,-1.1200000047683716,0.9800000190734864,-0.1050000041723251
14.12896275235382,-0.2962159812450409,-0.1300520002841949,-0.9230519533157348,-0.8400000333786011,1.5575000047683716,-0.1050000041723251
14.149175860726286,-0.2986559867858886,-0.13298000395298,-0.9320799708366394,-0.2100000083446502,1.190000057220459,0.0525000020861625
14.169388969098753,-0.2945079803466797,-0.1449359953403473,-0.9086560010910034,-0.1749999970197677,0.6825000047683716,0.2275000065565109
14.18960207747122,-0.3020719885826111,-0.109555996954441,-0.9350079894065856,-3.0625,2.2225000858306885,0.6299999952316284
14.209815185843686,-0.2893840074539184,-0.1466439962387085,-0.9225639700889589,3.3424999713897705,3.150000095367432,-0.7175000309944153
14.230028294216153,-0.2823079824447632,-0.1351760029792785,-0.9154880046844482,3.4124999046325684,3.884999990463257,-0.7699999809265137
14.25024140258862,-0.2798680067062378,-0.1290760040283203,-0.9159759879112244,2.712500095367432,4.445000171661377,-0.8224999904632568
14.270454510961086,-0.2808440029621124,-0.1246839985251426,-0.9230519533157348,4.235000133514404,4.637499809265137,-1.3125
14.290667619333552,-0.2898719906806946,-0.1361519992351532,-0.9250040054321288,4.8125,5.565000057220459,-1.6449999809265137
14.310880727706019,-0.2967039942741394,-0.1405439972877502,-0.9374479651451112,4.829999923706055,6.492499828338623,-1.715000033378601
14.331093836078486,-0.2962159812450409,-0.1405439972877502,-0.9503799676895142,4.865000247955322,7.525000095367432,-1.924999952316284
14.351306944450952,-0.2925559878349304,-0.1424959897994995,-0.9547719955444336,5.704999923706055,8.680000305175781,-2.380000114440918
14.371520052823419,-0.2857239842414856,-0.1461559981107711,-0.9501360058784484,6.300000190734863,9.69499969482422,-2.765000104904175
14.391733161195885,-0.2810879945755005,-0.1466439962387085,-0.949404001235962,6.457499980926514,10.552499771118164,-2.887500047683716
14.411946269568352,-0.2769399881362915,-0.1412760019302368,-0.9564799666404724,6.195000171661377,10.5,-2.765000104904175
14.432159377940819,-0.2766959965229034,-0.1378600001335144,-0.9625799655914308,5.372499942779541,10.149999618530272,-2.799999952316284
14.452372486313285,-0.2735239863395691,-0.1503039896488189,-0.9657520055770874,4.65500020980835,9.3100004196167,-2.922499895095825
14.472585594685752,-0.2703520059585571,-0.1556719988584518,-0.9691680073738098,4.602499961853027,7.875,-2.852499961853028
14.492798703058218,-0.2698639929294586,-0.152988001704216,-0.9694119691848756,4.480000019073486,6.072500228881836,-2.799999952316284
14.513011811430685,-0.2552239894866943,-0.1639679968357086,-0.9598959684371948,4.164999961853027,4.182499885559082,-2.414999961853028
14.533224919803152,-0.2601040005683899,-0.1637239903211593,-0.9503799676895142,3.7799999713897705,2.0824999809265137,-1.8200000524520876
14.553438028175618,-0.2520520091056824,-0.1576239913702011,-0.94159597158432,3.255000114440918,0.3849999904632568,-1.4524999856948853
14.573651136548085,-0.2369239926338195,-0.1590880006551742,-0.9340319633483888,2.502500057220459,-0.5600000023841858,-1.1375000476837158
14.593864244920551,-0.2449759989976883,-0.1454239934682846,-0.9257360100746156,1.0325000286102295,-1.4524999856948853,-0.7175000309944153
14.614077353293018,-0.253271996974945,-0.1690919995307922,-0.9176839590072632,-0.7524999976158142,-2.275000095367432,-0.1574999988079071
14.634290461665485,-0.2788919806480407,-0.1886119991540908,-0.9271999597549438,-3.569999933242798,-4.707499980926514,2.380000114440918
14.654503570037951,-0.249123990535736,-0.1093119978904724,-0.9537959694862366,-6.422500133514404,-8.032500267028809,3.797500133514404
14.674716678410418,-0.2498559951782226,-0.1378600001335144,-0.9318360090255736,-7.227499961853027,-8.172499656677246,2.5374999046325684
14.694929786782884,-0.2945079803466797,-0.1749479919672012,-0.935252010822296,-9.625,-8.890000343322754,2.940000057220459
14.715142895155351,-0.2962159812450409,-0.1761679947376251,-0.9796599745750428,-13.352499961853027,-12.984999656677246,5.355000019073486
14.735356003527817,-0.3096359968185425,-0.13298000395298,-0.9984479546546936,-15.417500495910645,-17.09749984741211,6.807499885559082
14.755569111900284,-0.3330599963665008,-0.1241960003972053,-0.9925919771194458,-17.045000076293945,-20.33500099182129,6.982500076293945
14.77578222027275,-0.3537999987602234,-0.1156559959053993,-0.9769759774208068,-19.61750030517578,-22.76749992370605,7.769999980926514
14.795995328645217,-0.3603879809379577,-0.10589599609375,-1.013819932937622,-21.700000762939453,-24.377500534057617,10.447500228881836
14.816208437017684,-0.3628279864788055,-0.1112639978528022,-1.113371968269348,-23.887500762939453,-27.15999984741211,14.244999885559082
14.83642154539015,-0.3667320013046264,-0.1005280017852783,-1.1697360277175903,-29.68000030517578,-32.34000015258789,13.6850004196167
14.856634653762617,-0.3281799852848053,-0.0670999959111213,-1.0592039823532104,-39.67250061035156,-38.67499923706055,5.337500095367432
14.876847762135084,-0.3847880065441131,0.1029679998755455,-0.9035319685935974,-87.46500396728516,-74.07749938964844,-85.10250091552734
14.89706087050755,-0.3396480083465576,0.0614879988133907,-0.8937720060348511,-97.8249969482422,-88.9000015258789,-128.29249572753906
14.917273978880017,-0.3235439956188202,0.0075639998540282,-0.8893799781799316,-86.1875,-87.5875015258789,-113.78500366210938
14.937487087252483,-0.2835280001163482,-0.2012999951839447,-0.892795979976654,-70.40250396728516,-82.25,-78.8550033569336
14.95770019562495,-0.3838119804859161,-0.1871479898691177,-0.9698999524116516,-27.247499465942383,-94.8499984741211,-35.01750183105469
14.977913303997417,-0.4309040009975433,-0.0990639999508857,-0.8859639763832092,-21.38500022888184,-142.71249389648438,14.5600004196167
14.998126412369883,-0.5509520173072815,-0.0722239986062049,-0.7825079560279846,-35.94499969482422,-168.50750732421875,43.29500198364258
15.01833952074235,-0.6139039993286133,-0.0173240005970001,-0.8476560115814209,-6.002500057220459,-238.6999969482422,40.51250076293945
15.038552629114816,-0.4860479831695556,-0.065880000591278,-0.925491988658905,13.720000267028809,-212.6074981689453,40.845001220703125
15.058765737487283,-0.6531879901885986,0.0390399992465972,-0.7764079570770264,2.414999961853028,-77.64749908447266,42.630001068115234
15.07897884585975,-0.8239879608154297,0.0468479990959167,-0.7468839883804321,5.09250020980835,-72.99250030517578,45.84999847412109
15.099191954232216,-0.7798239588737488,0.006343999877572,-0.7388319969177246,9.7475004196167,-145.0050048828125,43.81999969482422
15.119405062604683,-0.7263879776000977,-0.010491999797523,-0.7010120153427124,8.75,-146.1074981689453,38.150001525878906
15.13961817097715,-0.7693319916725159,0.0204959996044635,-0.6153680086135864,4.130000114440918,-94.8324966430664,29.190000534057617
15.159831279349616,-0.8579039573669434,0.1420079916715622,-0.5724239945411682,9.029999732971191,-99.52249908447266,31.09749984741211
15.180044387722083,-0.8027600049972534,0.1410319954156875,-0.5241119861602783,-6.5625,-105.57749938964844,32.602500915527344
15.20025749609455,-0.7966600060462952,0.1107759997248649,-0.4879999756813049,-22.71500015258789,-94.0625,34.212501525878906
15.220470604467016,-0.8122760057449341,0.1066280007362365,-0.416263997554779,-36.62749862670898,-88.60250091552734,32.54999923706055
15.240683712839482,-0.8217920064926147,0.0478239990770816,-0.3745400011539459,-42.4900016784668,-85.61000061035156,30.975000381469727
15.260896821211949,-0.8325279951095581,0.0739319995045661,-0.367464005947113,-25.287500381469727,-82.3550033569336,31.290000915527344
15.281109929584415,-0.8464359641075134,0.1217559948563575,-0.3786879777908325,-14.105000495910645,-75.56500244140625,32.04249954223633
15.301323037956882,-0.822767972946167,0.1869039982557296,-0.3159799873828888,-14.420000076293944,-75.65250396728516,30.69499969482422
15.321536146329349,-0.859611988067627,0.1442039906978607,-0.2835280001163482,-15.732500076293944,-61.845001220703125,28.962499618530277
15.341749254701815,-0.8539999723434448,0.1742160022258758,-0.2547360062599182,-9.1875,-63.26250076293945,25.88249969482422
15.361962363074282,-0.8161799907684326,0.1720200031995773,-0.2474159896373748,0.1400000005960464,-66.08000183105469,20.614999771118164
15.382175471446748,-0.7844600081443787,0.2561999857425689,-0.1237079948186874,-0.3499999940395355,-49.03499984741211,15.364999771118164
15.402388579819215,-0.7715280055999756,0.2418039888143539,-0.0124439997598528,-6.772500038146973,-26.28499984741211,12.442500114440918
15.422601688191682,-0.7432239651679993,0.2349720001220703,-0.0312319993972778,2.362499952316284,-22.102500915527344,7.034999847412109
15.442814796564148,-0.7807999849319458,0.2476599961519241,-0.0129319997504353,1.3825000524520874,-15.225000381469728,2.765000104904175
15.463027904936615,-0.802515983581543,0.2320439964532852,-0.0187879987061023,-3.9375,-6.264999866485596,-0.612500011920929
15.483241013309081,-0.9479399919509888,0.1988599896430969,-0.104432001709938,16.047500610351562,28.174999237060547,-13.842499732971191
15.503454121681548,-0.965507984161377,0.2952399849891662,-0.1539639979600906,30.940000534057617,36.73250198364258,-16.030000686645508
15.523667230054015,-0.954039990901947,0.3294000029563904,-0.1969079971313476,29.03249931335449,46.39250183105469,-18.1825008392334
15.543880338426481,-0.986735999584198,0.3630719780921936,-0.2374119907617569,29.45249938964844,57.64500045776367,-23.48500061035156
15.564093446798948,-0.9862479567527772,0.3889359831809997,-0.2686440050601959,22.802499771118164,62.352500915527344,-29.417499542236328
15.584306555171414,-0.9918599724769592,0.3167119920253753,-0.3279359936714172,5.057499885559082,63.42000198364258,-32.40999984741211
15.604519663543881,-0.9781959652900696,0.2249680012464523,-0.3350119888782501,-8.907500267028809,60.619998931884766,-35.40250015258789
15.624732771916348,-0.9013359546661376,0.1298079937696457,-0.3381839990615845,-13.404999732971191,64.43499755859375,-41.0724983215332
15.644945880288814,-0.8347240090370178,0.0602679997682571,-0.3406240046024322,-9.047499656677246,72.01249694824219,-47.07500076293945
15.66515898866128,-0.794219970703125,0.038307998329401,-0.2949959933757782,0.2800000011920929,75.94999694824219,-49.875
15.685372097033747,-0.7832399606704712,0.0427000001072883,-0.3357439935207367,20.07250022888184,74.21749877929688,-48.40499877929688
15.705585205406214,-0.8271600008010864,-0.0080519998446106,-0.4816559851169586,53.77750015258789,64.10250091552734,-47.86249923706055
15.72579831377868,-0.92085599899292,0.0024399999529123,-0.606827974319458,60.88249969482422,64.3125,-56.244998931884766
15.746011422151147,-0.9193919897079468,-0.0392839983105659,-0.6771000027656555,54.67000198364258,72.5199966430664,-62.790000915527344
15.766224530523614,-0.8105679750442505,0.041967999190092,-0.5209400057792664,43.62749862670898,53.74250030517578,-56.997501373291016
15.78643763889608,-0.8142279982566833,0.0683199986815452,-0.5570520162582397,31.79750061035156,51.432498931884766,-53.95249938964844
15.806650747268547,-0.7825079560279846,-0.0004879999905824,-0.6241520047187805,6.982500076293945,2.799999952316284,-46.51499938964844
15.826863855641014,-0.7446879744529724,-0.1341999918222427,-0.6487959623336792,-7.612500190734863,19.040000915527344,-54.12749862670898
15.84707696401348,-0.8862079977989197,-0.0424560010433197,-0.7322440147399902,6.264999866485596,60.74250030517578,-56.525001525878906
15.867290072385947,-0.9901520013809204,-0.042943999171257,-0.8327719569206238,3.6050000190734863,49.33250045776367,-59.39500045776367
15.887503180758413,-0.9555040001869202,-0.1246839985251426,-0.9201239943504332,7.559999942779541,23.1875,-62.807498931884766
15.90771628913088,-0.8600999712944031,-0.1376159936189651,-0.7903159856796265,3.849999904632568,18.987499237060547,-65.32749938964844
15.927929397503346,-0.9162200093269348,0.0278159994632005,-0.7685999870300293,20.614999771118164,53.72499847412109,-63.9275016784668
15.948142505875813,-0.948915958404541,0.0068319998681545,-0.7688440084457397,5.074999809265137,31.46500015258789,-62.29999923706055
15.96835561424828,-0.8630279898643494,-0.1124840006232261,-0.859611988067627,-9.11750030517578,8.819999694824219,-58.275001525878906
15.988568722620746,-0.8803519606590271,-0.1417640000581741,-0.8813279867172241,-11.2524995803833,25.14750099182129,-58.25749969482422
16.00878183099321,-0.8891359567642212,-0.2420479953289032,-0.9718520045280457,1.8899999856948853,46.39250183105469,-67.14749908447266
16.028994939365678,-0.8400920033454895,-0.3010959923267364,-0.9372040033340454,-3.849999904632568,49.42000198364258,-66.32499694824219
16.049208047738144,-0.8786439895629883,-0.4760439991950989,-1.0765279531478882,17.53499984741211,53.11249923706055,-59.79750061035156
16.06942115611061,-0.9481839537620544,-0.3852759897708893,-0.9652639627456664,43.48749923706055,51.48500061035156,-52.81499862670898
16.089634264483077,-0.7446879744529724,-0.2791360020637512,-0.6761239767074585,44.275001525878906,24.604999542236328,-33.022499084472656
16.109847372855544,-0.6534320116043091,-0.2798680067062378,-0.69759601354599,25.375,31.36000061035156,-27.842500686645508
16.13006048122801,-0.6505039930343628,-0.3369639813899994,-0.7295599579811096,13.300000190734863,39.497501373291016,-21.06999969482422
16.150273589600477,-0.603655993938446,-0.3760039806365967,-0.7595719695091248,15.3125,41.9474983215332,-8.364999771118164
16.170486697972944,-0.5521720051765442,-0.3579480051994324,-0.7417600154876709,17.7450008392334,47.67000198364258,3.150000095367432
16.19069980634541,-0.5141080021858215,-0.3403799831867218,-0.7417600154876709,18.864999771118164,53.35750198364258,9.7475004196167
16.210912914717877,-0.4223639965057373,-0.2610799968242645,-0.7559120059013367,25.427499771118164,54.7400016784668,10.53499984741211
16.231126023090344,-0.3713679909706116,-0.2139879912137985,-0.7039399743080139,6.597499847412109,83.98249816894531,6.860000133514404
16.25133913146281,-0.3208599984645843,-0.2025199979543686,-0.7205320000648499,-6.037499904632568,88.23500061035156,3.9375
16.271552239835277,-0.3725879788398742,-0.3525799810886383,-0.7078439593315125,-18.427499771118164,93.7125015258789,-1.4175000190734863
16.291765348207743,-0.3699039816856384,-0.2220399975776672,-0.7105280160903931,-6.072500228881836,87.37750244140625,-14.9975004196167
16.31197845658021,-0.447983980178833,-0.110287994146347,-0.7629879713058472,1.924999952316284,79.32749938964844,-6.019999980926514
16.332191564952677,-0.4899519979953766,-0.0280600003898143,-0.7588399648666382,2.922499895095825,76.38749694824219,7.595000267028809
16.352404673325143,-0.5311880111694336,-0.0617319978773593,-0.749567985534668,-11.550000190734863,75.52999877929688,20.545000076293945
16.37261778169761,-0.5768159627914429,-0.1137039959430694,-0.7483479976654053,-27.28249931335449,65.11750030517578,27.14249992370605
16.392830890070076,-0.5753520131111145,-0.2466839998960495,-0.7842159867286682,-33.61750030517578,46.00749969482422,25.024999618530277
16.413043998442543,-0.5004439949989319,-0.2557120025157928,-0.7649399638175964,0.1749999970197677,28.01749992370605,24.184999465942383
16.43325710681501,-0.4818999767303467,-0.0600240007042884,-0.7820199728012085,28.21000099182129,6.510000228881836,22.924999237060547
16.453470215187476,-0.4352959990501404,0.1261480003595352,-0.7773839831352234,26.582500457763672,-4.182499885559082,25.58500099182129
16.473683323559943,-0.4452999830245971,0.0470919981598854,-0.8740079998970032,12.302499771118164,-5.197500228881836,28.64750099182129
16.49389643193241,-0.4348079860210418,-0.1393239945173263,-0.8417999744415283,-16.100000381469727,-18.32250022888184,26.6875
16.514109540304876,-0.4255359768867492,-0.1517679989337921,-0.7439559698104858,-9.1875,-25.96999931335449,25.707500457763672
16.534322648677342,-0.4357839822769165,-0.2396079897880554,-0.8056879639625549,-0.2100000083446502,-23.292499542236328,22.102500915527344
16.55453575704981,-0.3986960053443908,-0.2054480016231537,-0.7019879817962646,6.894999980926514,-32.11249923706055,16.55500030517578
16.574748865422276,-0.3313519954681396,-0.2469279915094375,-0.7717719674110413,9.975000381469728,-22.5049991607666,7.857500076293945
16.594961973794742,-0.2903600037097931,-0.1039439961314201,-0.7019879817962646,18.44499969482422,-30.747499465942383,11.234999656677246
16.61517508216721,-0.2593719959259033,-0.2971920073032379,-0.6712439656257629,-6.195000171661377,-25.51499938964844,9.625
16.635388190539675,-0.2320439964532852,-0.3386719822883606,-0.6365959644317627,-9.25749969482422,-23.747499465942383,4.09499979019165
16.655601298912142,-0.268887996673584,-0.3901560008525848,-0.7224839925765991,-4.690000057220459,-17.395000457763672,-3.132499933242798
16.67581440728461,-0.3206160068511963,-0.3850319981575012,-0.8561959862709045,8.4350004196167,-7.472499847412109,-12.6875
16.696027515657075,-0.3067080080509186,-0.4169960021972656,-0.8383839726448059,38.37749862670898,-3.184999942779541,-28.280000686645508
16.716240624029542,-0.3398919999599457,-0.3828359842300415,-0.8425319790840149,61.09249877929688,0.1749999970197677,-38.16749954223633
16.73645373240201,-0.3252519965171814,-0.4460319876670837,-0.8183760046958923,51.20500183105469,11.2524995803833,-48.685001373291016
16.756666840774475,-0.3594119846820831,-0.4418839812278747,-0.8242319822311401,54.810001373291016,23.78249931335449,-57.032501220703125
16.77687994914694,-0.416020005941391,-0.4823879897594452,-0.843019962310791,52.32500076293945,26.4424991607666,-61.59999847412109
16.797093057519408,-0.4757999777793884,-0.5797439813613892,-0.8635159730911255,54.11000061035156,23.957500457763672,-63.157501220703125
16.817306165891875,-0.5341159701347351,-0.5633959770202637,-0.8435080051422119,63.665000915527344,12.8100004196167,-57.81999969482422
16.83751927426434,-0.5809639692306519,-0.5389959812164307,-0.798367977142334,66.3949966430664,-5.284999847412109,-48.87749862670898
16.857732382636808,-0.5399720072746277,-0.5509520173072815,-0.7795799970626831,66.37750244140625,-16.729999542236328,-41.70249938964844
16.877945491009275,-0.4882439970970154,-0.563152015209198,-0.762499988079071,68.31999969482422,-25.82999992370605,-35.244998931884766
16.89815859938174,-0.4028439819812774,-0.6490399837493896,-0.6985719799995422,67.18250274658203,-34.5625,-33.86249923706055
16.918371707754208,-0.3130519986152649,-0.6775879859924316,-0.664900004863739,71.48750305175781,-31.21999931335449,-39.182498931884766
16.938584816126674,-0.2210640013217926,-0.6844199895858765,-0.6509919762611389,72.7300033569336,-36.62749862670898,-41.42250061035156
16.95879792449914,-0.2191119939088821,-0.6622160077095032,-0.6539199948310852,71.92500305175781,-52.08000183105469,-40.56499862670898
16.979011032871608,-0.2169159948825836,-0.532651960849762,-0.5968239903450012,51.6775016784668,-54.65250015258789,-47.442501068115234
16.999224141244074,-0.2095959931612014,-0.6051200032234192,-0.6024360060691833,40.3025016784668,-49.40250015258789,-50.66249847412109
17.01943724961654,-0.1556719988584518,-0.639523983001709,-0.5121560096740723,44.20500183105469,-42.31499862670898,-53.47999954223633
17.039650357989007,-0.0683199986815452,-0.6475759744644165,-0.4165079891681671,40.95000076293945,-26.040000915527344,-61.79249954223633
17.059863466361474,-0.0197639986872673,-0.6827119588851929,-0.3884479999542236,29.26000022888184,0.4025000035762787,-68.45999908447266
17.08007657473394,-0.0739319995045661,-0.7571319937705994,-0.4596959948539734,16.55500030517578,25.899999618530277,-72.20500183105469
17.100289683106407,-0.167383998632431,-0.7959280014038086,-0.4879999756813049,12.407500267028809,29.32999992370605,-71.59249877929688
17.120502791478874,-0.2915799915790558,-0.8464359641075134,-0.5141080021858215,18.00749969482422,26.75749969482422,-71.8550033569336
17.14071589985134,-0.4023559987545013,-0.8181319832801819,-0.5565639734268188,30.83500099182129,21.06999969482422,-70.89250183105469
17.160929008223807,-0.4252919852733612,-0.7183359861373901,-0.5743759870529175,43.102500915527344,10.605000495910645,-62.6150016784668
17.181142116596273,-0.3903999924659729,-0.7224839925765991,-0.5851119756698608,40.95000076293945,9.1875,-52.255001068115234
17.20135522496874,-0.3230559825897217,-0.7461519837379456,-0.5690079927444458,36.76750183105469,4.8125,-40.040000915527344
17.221568333341207,-0.2954840064048767,-0.7393199801445007,-0.5285040140151978,38.307498931884766,-10.167500495910645,-23.852500915527344
17.241781441713673,-0.3401359915733337,-0.7827519774436951,-0.561199963092804,34.474998474121094,-15.154999732971191,-9.975000381469728
17.26199455008614,-0.3328160047531128,-0.7776280045509338,-0.4804359972476959,18.655000686645508,-28.06999969482422,6.877500057220459
17.282207658458606,-0.3211039900779724,-0.9325679540634156,-0.5228919982910156,9.537500381469728,-28.36750030517578,18.427499771118164
17.302420766831073,-0.2740119993686676,-0.9569680094718932,-0.517524003982544,59.20249938964844,-16.712499618530273,21.122499465942383
17.32263387520354,-0.3684400022029876,-0.8005639910697937,-0.4984920024871826,69.79000091552734,-9.100000381469728,16.274999618530273
17.342846983576006,-0.4833639860153198,-0.6866160035133362,-0.4958080053329468,60.20000076293945,-6.054999828338623,18.44499969482422
17.363060091948473,-0.5919439792633057,-0.6951559782028198,-0.4518879950046539,46.25249862670898,-25.864999771118164,28.64750099182129
17.38327320032094,-0.6226879954338074,-0.8415560126304626,-0.4262679815292358,39.462501525878906,-43.119998931884766,32.07749938964844
17.403486308693406,-0.5990200042724609,-0.8281359672546387,-0.4113839864730835,45.92000198364258,-52.727500915527344,31.9375
17.423699417065873,-0.5424119830131531,-0.7322440147399902,-0.4196799993515014,37.20500183105469,-69.8949966430664,30.78249931335449
17.44391252543834,-0.4240719974040985,-0.7234599590301514,-0.4240719974040985,31.71000099182129,-84.62999725341797,36.067501068115234
17.464125633810806,-0.3572160005569458,-0.8027600049972534,-0.3259840011596679,31.290000915527344,-75.89749908447266,39.54999923706055
17.484338742183272,-0.3433080017566681,-0.8620519638061523,-0.3050000071525574,22.88999938964844,-65.30999755859375,41.352500915527344
17.50455185055574,-0.3518480062484741,-0.8161799907684326,-0.3340359926223755,25.707500457763672,-53.83000183105469,34.334999084472656
17.524764958928206,-0.3533119857311249,-0.7607919573783875,-0.346235990524292,22.08500099182129,-49.71749877929688,24.482500076293945
17.544978067300672,-0.3703919947147369,-0.7100399732589722,-0.3437959849834442,17.045000076293945,-46.83000183105469,16.030000686645508
17.56519117567314,-0.3533119857311249,-0.6444039940834045,-0.2884079813957214,8.645000457763672,-47.810001373291016,13.579999923706056
17.585404284045605,-0.2749879956245422,-0.4377360045909881,-0.0932080000638961,-22.364999771118164,-74.77750396728516,42.13999938964844
17.605617392418072,-0.3311080038547516,-0.6487959623336792,0.0161039996892213,-129.57000732421875,-116.9000015258789,92.43499755859376
17.62583050079054,-0.3962559998035431,-1.199504017829895,-0.1676279902458191,-179.65499877929688,-85.4000015258789,81.2874984741211
17.646043609163005,-0.3799079954624176,-1.148751974105835,-0.2518079876899719,-72.04750061035156,-21.64750099182129,33.86249923706055
17.66625671753547,-0.4655520021915436,-1.0135760307312012,-0.2979239821434021,-24.587499618530277,3.674999952316284,32.567501068115234
17.68646982590794,-0.582427978515625,-0.9469639658927916,-0.3696599900722503,-21.174999237060547,25.67250061035156,5.215000152587891
17.706682934280405,-0.6392799615859985,-1.0445640087127686,-0.3130519986152649,-29.01499938964844,47.75749969482422,-0.9100000262260436
17.72689604265287,-0.5965799689292908,-1.050176024436951,-0.1925159990787506,-12.1274995803833,59.56999969482422,-19.354999542236328
17.747109151025338,-0.5033720135688782,-0.9149999618530272,-0.148839995265007,5.652500152587891,60.497501373291016,-28.4375
17.767322259397805,-0.3923519849777221,-0.9433040022850036,-0.2256999909877777,-2.782500028610229,54.09249877929688,-29.505001068115234
17.78753536777027,-0.4399319887161255,-0.9589200019836426,-0.3025600016117096,-8.154999732971191,45.587501525878906,-21.927499771118164
17.807748476142738,-0.5172799825668335,-1.081164002418518,-0.2576639950275421,-32.619998931884766,31.65749931335449,-22.540000915527344
17.827961584515204,-0.5914559960365295,-1.0706720352172852,-0.289139986038208,-3.849999904632568,50.119998931884766,-8.207500457763672
17.84817469288767,-0.553879976272583,-0.8857199549674988,-0.3618519902229309,22.155000686645508,65.87000274658203,-0.7524999976158142
17.868387801260138,-0.4855599999427795,-0.6583119630813599,-0.4182159900665283,25.82999992370605,42.10499954223633,5.547500133514404
17.888600909632604,-0.452131986618042,-0.737123966217041,-0.4472520053386688,10.079999923706056,17.114999771118164,8.364999771118164
17.90881401800507,-0.5014199614524841,-0.742247998714447,-0.4140679836273193,18.497499465942383,27.107500076293945,1.75
17.929027126377537,-0.5180119872093201,-0.7190679907798767,-0.4169960021972656,14.105000495910645,6.579999923706055,0.7699999809265137
17.949240234750004,-0.4311479926109314,-0.6707559823989868,-0.4140679836273193,7.664999961853027,-11.112500190734863,0.3849999904632568
17.96945334312247,-0.3723439872264862,-0.6158559918403625,-0.3784439861774444,-4.252500057220459,-18.497499465942383,-1.2074999809265137
17.989666451494937,-0.3472119867801666,-0.6780759692192078,-0.4460319876670837,-10.797499656677246,-22.9950008392334,-6.720000267028809
18.009879559867404,-0.3645359873771667,-0.6507480144500732,-0.5214279890060425,-5.389999866485596,-9.204999923706056,-12.31999969482422
18.03009266823987,-0.4045519828796386,-0.5970680117607117,-0.5651040077209473,-3.7100000381469727,-4.777500152587891,-11.130000114440918
18.050305776612337,-0.4265120029449463,-0.5619319677352905,-0.5709599852561951,-12.337499618530272,-5.740000247955322,-7.962500095367432
18.070518884984804,-0.4633559882640838,-0.5670560002326965,-0.5748639702796936,-23.450000762939453,-4.567500114440918,-3.622499942779541
18.09073199335727,-0.4872680008411407,-0.6531879901885986,-0.5809639692306519,-32.287498474121094,-4.795000076293945,0.9975000023841858
18.110945101729737,-0.4941000044345855,-0.6849079728126526,-0.5860880017280579,-32.91749954223633,-3.009999990463257,5.985000133514404
18.131158210102203,-0.4877559840679168,-0.6753919720649719,-0.6007279753684998,-34.42250061035156,-6.982500076293945,9.852499961853027
18.15137131847467,-0.4811680018901825,-0.6287879943847656,-0.5790119767189026,-38.53499984741211,-7.682499885559082,11.130000114440918
