Time (seconds),acc_x,acc_y,acc_z,gyro_x,gyro_y,gyro_z
0.020142518549378503,-0.124439999461174,-0.9637999534606934,-0.128831997513771,0.0874999985098838,9.537500381469728,2.432500123977661
0.040285037098757005,-0.1354199945926666,-0.9684360027313232,-0.1227319985628128,-2.7300000190734863,7.559999942779541,0.8400000333786011
0.06042755564813551,-0.1459119915962219,-0.9620919823646544,-0.1190719977021217,-5.267499923706055,9.677499771118164,3.954999923706055
0.08057007419751401,-0.1349319964647293,-0.948915958404541,-0.1112639978528022,-9.380000114440918,4.322500228881836,1.190000057220459
0.10071259274689251,-0.1617719978094101,-1.0191879272460938,-0.114436000585556,-9.467499732971191,10.02750015258789,-2.0299999713897705
0.12085511129627101,-0.1593319922685623,-1.0030839443206787,-0.1202920004725456,3.569999933242798,26.18000030517578,2.414999961853028
0.1409976298456495,-0.1690919995307922,-0.9818559885025024,-0.1232199966907501,15.522500038146973,33.775001525878906,1.7675000429153442
0.16114014839502802,-0.1869039982557296,-0.9550159573554992,-0.114436000585556,11.88249969482422,23.59000015258789,6.912499904632568
0.18128266694440653,-0.1637239903211593,-0.9772199988365172,-0.1200480014085769,4.445000171661377,15.855000495910645,4.462500095367432
0.20142518549378505,-0.1805599927902221,-1.0128439664840698,-0.1085800006985664,4.287499904632568,12.6875,2.362499952316284
0.22156770404316356,-0.1605519950389862,-1.012355923652649,-0.1149239987134933,2.309999942779541,8.4350004196167,2.2925000190734863
0.24171022259254207,-0.1500599980354309,-0.9923479557037354,-0.1110199987888336,5.442500114440918,8.8725004196167,1.8550000190734863
0.2618527411419206,-0.1542080044746399,-0.9625799655914308,-0.1115079969167709,4.550000190734863,10.587499618530272,2.940000057220459
0.28199525969129907,-0.1503039896488189,-0.9667279720306396,-0.1168759986758232,1.2424999475479126,8.574999809265137,1.627500057220459
0.30213777824067756,-0.1576239913702011,-0.9735599756240844,-0.1205359995365142,0.6474999785423279,3.8324999809265137,-0.2275000065565109
0.32228029679005604,-0.153231993317604,-0.9689239859580994,-0.115167997777462,0.9975000023841858,-1.995000004768372,-2.0999999046325684
0.3424228153394345,-0.1505479961633682,-0.97599995136261,-0.1110199987888336,0.5774999856948853,-2.799999952316284,-2.1700000762939453
0.362565333888813,-0.1544519960880279,-0.9879559874534608,-0.1090679988265037,-0.4550000131130218,-1.3825000524520874,-0.8575000166893005
0.3827078524381915,-0.1612839996814727,-0.9894199967384338,-0.1127279996871948,-0.7175000309944153,1.225000023841858,-0.0700000002980232
0.40285037098757,-0.1639679968357086,-0.9801479578018188,-0.1163880005478859,-0.7875000238418579,2.747499942779541,0.1225000023841857
0.42299288953694847,-0.1693359911441803,-0.985759973526001,-0.1205359995365142,-1.1549999713897705,1.3825000524520874,0.0175000000745058
0.44313540808632695,-0.1661639958620071,-0.9882000088691713,-0.1163880005478859,1.0325000286102295,-2.9574999809265137,-0.4200000166893005
0.46327792663570544,-0.1566479951143264,-0.97843998670578,-0.1076039969921112,1.2424999475479126,-3.622499942779541,-0.7175000309944153
0.4834204451850839,-0.1607960015535354,-0.9735599756240844,-0.1139479950070381,-0.4025000035762787,-0.6825000047683716,-0.7699999809265137
0.5035629637344624,-0.1551840007305145,-0.9830759763717652,-0.1183400005102157,-0.8050000071525574,-0.875,-2.362499952316284
0.523705482283841,-0.1527439951896667,-0.9840520024299622,-0.1161440014839172,-0.8400000333786011,-2.257499933242798,-2.555000066757202
0.5438480008332195,-0.1459119915962219,-0.9862479567527772,-0.1198039948940277,-0.699999988079071,-4.340000152587891,-2.852499961853028
0.563990519382598,-0.1549399942159652,-0.9803919792175292,-0.1261480003595352,-0.2275000065565109,-6.457499980926514,-2.345000028610229
0.5841330379319766,-0.1461559981107711,-0.9818559885025024,-0.1141919940710067,-0.1050000041723251,-8.680000305175781,-1.784999966621399
0.6042755564813551,-0.1495719999074936,-0.9838079810142516,-0.1173639968037605,0.0700000002980232,-8.032500267028809,-1.8025000095367432
0.6244180750307337,-0.1461559981107711,-0.977463960647583,-0.1129719987511634,-0.8924999833106995,-10.324999809265137,-2.414999961853028
0.6445605935801122,-0.1420079916715622,-0.9789279699325562,-0.1080919951200485,-1.6974999904632568,-8.487500190734863,-2.852499961853028
0.6647031121294907,-0.1490840017795562,-0.9842959642410278,-0.1112639978528022,-2.2225000858306885,-6.579999923706055,-2.134999990463257
0.6848456306788693,-0.1522559970617294,-0.9921039938926696,-0.1141919940710067,-1.4874999523162842,-4.724999904632568,-1.6974999904632568
0.7049881492282478,-0.1510359942913055,-0.9889319539070128,-0.1139479950070381,-0.4900000095367431,-3.1675000190734863,-1.75
0.7251306677776264,-0.1517679989337921,-0.9842959642410278,-0.1171199977397918,-0.7175000309944153,-2.765000104904175,-1.4874999523162842
0.7452731863270049,-0.1525000035762787,-0.9840520024299622,-0.1149239987134933,-0.7350000143051147,-3.1675000190734863,-1.2424999475479126
0.7654157048763834,-0.1517679989337921,-0.9799039959907532,-0.1166319996118545,-0.6650000214576721,-3.255000114440918,-1.3125
0.785558223425762,-0.1512800008058548,-0.9882000088691713,-0.1229759976267814,-0.2975000143051147,-3.849999904632568,-1.347499966621399
0.8057007419751405,-0.1485960036516189,-0.982587993144989,-0.1124840006232261,0.5950000286102295,-4.182499885559082,-1.2424999475479126
0.8258432605245191,-0.1461559981107711,-0.9781959652900696,-0.1127279996871948,-0.4025000035762787,-2.799999952316284,-1.1375000476837158
0.8459857790738976,-0.1468880027532577,-0.9838079810142516,-0.1163880005478859,-0.0700000002980232,0.9275000095367432,-0.962499976158142
0.8661282976232761,-0.1522559970617294,-0.9833199977874756,-0.1280999928712844,-0.262499988079071,-0.8050000071525574,-0.875
0.8862708161726547,-0.1485960036516189,-0.9896639585494996,-0.1219999939203262,0.1924999952316284,-4.724999904632568,-0.9275000095367432
0.9064133347220332,-0.1483519971370697,-0.9896639585494996,-0.1173639968037605,0.6650000214576721,-6.317500114440918,-1.1549999713897705
0.9265558532714118,-0.1449359953403473,-0.9806360006332396,-0.1105320006608963,0.1400000005960464,-7.052500247955322,-1.0674999952316284
0.9466983718207903,-0.1434720009565353,-0.9794159531593324,-0.105163998901844,-0.875,-5.617499828338623,-0.5950000286102295
0.9668408903701688,-0.1381039917469024,-0.9879559874534608,-0.109555996954441,-1.995000004768372,-5.670000076293945,-0.2100000083446502
0.9869834089195474,-0.1442039906978607,-0.98990797996521,-0.1158999949693679,-1.5575000047683716,-4.585000038146973,-0.2975000143051147
1.007125927468926,-0.142984002828598,-0.9882000088691713,-0.118827998638153,-0.9275000095367432,-7.139999866485596,-0.2975000143051147
1.0272684460183044,-0.1398119926452636,-0.9874680042266846,-0.1173639968037605,-0.4025000035762787,-5.809999942779541,-0.3149999976158142
1.0474109645676828,-0.140299990773201,-0.9828319549560548,-0.1158999949693679,-0.3675000071525574,-4.322500228881836,0.4375
1.0675534831170612,-0.1427399963140487,-0.977463960647583,-0.1127279996871948,-1.1024999618530271,-2.134999990463257,0.7350000143051147
1.0876960016664396,-0.1554279923439026,-0.981611967086792,-0.1229759976267814,-1.0850000381469729,-3.132499933242798,1.4700000286102295
1.107838520215818,-0.1564040035009384,-0.977463960647583,-0.1190719977021217,-1.0325000286102295,-3.7274999618530273,1.5924999713897705
1.1279810387651965,-0.1546960026025772,-0.9757559895515442,-0.1173639968037605,-1.784999966621399,-2.8350000381469727,1.3825000524520874
1.148123557314575,-0.1534759998321533,-0.9764879941940308,-0.1198039948940277,-2.870000123977661,-2.134999990463257,1.1549999713897705
1.1682660758639534,-0.1544519960880279,-0.9835639595985411,-0.1273680031299591,-3.7274999618530273,-2.309999942779541,1.0325000286102295
1.1884085944133318,-0.153231993317604,-0.9833199977874756,-0.1280999928712844,-3.2725000381469727,-3.237499952316284,0.8224999904632568
1.2085511129627102,-0.1485960036516189,-0.977463960647583,-0.1266359984874725,-2.7300000190734863,-3.3600001335144043,0.5600000023841858
1.2286936315120887,-0.1483519971370697,-0.9764879941940308,-0.1254159957170486,-2.6424999237060547,-3.307500123977661,0.5074999928474426
1.248836150061467,-0.1444479972124099,-0.9830759763717652,-0.1227319985628128,-3.009999990463257,-3.430000066757202,0.4025000035762787
1.2689786686108455,-0.142984002828598,-0.9901520013809204,-0.1241960003972053,-2.4674999713897705,-3.3949999809265137,-0.1050000041723251
1.289121187160224,-0.1468880027532577,-0.9860039949417114,-0.1278560012578964,-0.7875000238418579,-3.1675000190734863,-0.3149999976158142
1.3092637057096024,-0.1381039917469024,-0.981611967086792,-0.1293199956417083,-0.1924999952316284,-5.039999961853027,-0.4900000095367431
1.3294062242589808,-0.1376159936189651,-0.977463960647583,-0.1276119947433471,0.2450000047683715,-2.5374999046325684,-0.6474999785423279
1.3495487428083592,-0.1383479982614517,-0.9777079820632936,-0.1246839985251426,-0.4375,-2.012500047683716,-0.7875000238418579
1.3696912613577377,-0.1351760029792785,-0.9806360006332396,-0.124439999461174,-0.9275000095367432,-1.0499999523162842,-0.7175000309944153
1.389833779907116,-0.1373720020055771,-0.9801479578018188,-0.1234639957547187,-1.1549999713897705,-0.2800000011920929,-0.5425000190734863
1.4099762984564945,-0.1424959897994995,-0.9838079810142516,-0.1268799901008606,-0.8924999833106995,0.612500011920929,-0.4724999964237213
1.430118817005873,-0.1468880027532577,-0.9821000099182128,-0.128831997513771,-0.2800000011920929,0.875,-0.7699999809265137
1.4502613355552514,-0.1439599990844726,-0.9762439727783204,-0.1259039938449859,-0.3149999976158142,2.432500123977661,-0.612500011920929
1.4704038541046298,-0.1434720009565353,-0.9799039959907532,-0.1212679967284202,-0.2275000065565109,4.8125,-0.4200000166893005
1.4905463726540082,-0.148839995265007,-0.9877119660377502,-0.1241960003972053,-0.1050000041723251,6.195000171661377,0.1400000005960464
1.5106888912033867,-0.1490840017795562,-0.990884006023407,-0.1280999928712844,-0.3675000071525574,5.162499904632568,1.0674999952316284
1.530831409752765,-0.1505479961633682,-0.985759973526001,-0.1266359984874725,-0.0175000000745058,5.389999866485596,1.4350000619888306
1.5509739283021435,-0.1503039896488189,-0.9755119681358336,-0.124439999461174,0.0175000000745058,5.284999847412109,1.4700000286102295
1.571116446851522,-0.1454239934682846,-0.9716079831123352,-0.1207799986004829,-0.9975000023841858,4.795000076293945,1.225000023841858
1.5912589654009004,-0.152988001704216,-0.974291980266571,-0.1249279975891113,-2.5199999809265137,4.375,1.3825000524520874
1.6114014839502788,-0.1539639979600906,-0.981611967086792,-0.130295991897583,-3.3600001335144043,2.694999933242798,1.0499999523162842
1.6315440024996573,-0.1542080044746399,-0.9806360006332396,-0.1266359984874725,-2.5374999046325684,1.3125,0.7524999976158142
1.6516865210490357,-0.1537199914455413,-0.9801479578018188,-0.128831997513771,-2.782500028610229,1.277500033378601,0.5600000023841858
1.6718290395984141,-0.1525000035762787,-0.9813680052757264,-0.1324919909238815,-3.307500123977661,0.4025000035762787,0.5774999856948853
1.6919715581477925,-0.1505479961633682,-0.9813680052757264,-0.1312720030546188,-3.5,-1.1024999618530271,0.6474999785423279
1.712114076697171,-0.1500599980354309,-0.9852719902992249,-0.1315159946680069,-3.237499952316284,-0.5249999761581421,0.6825000047683716
1.7322565952465494,-0.1517679989337921,-0.9847840070724488,-0.1307840049266815,-2.309999942779541,1.4524999856948853,0.7175000309944153
1.7523991137959278,-0.1517679989337921,-0.9823439717292786,-0.1332239955663681,-2.240000009536743,2.555000066757202,0.8924999833106995
1.7725416323453063,-0.153231993317604,-0.9796599745750428,-0.1405439972877502,-1.995000004768372,2.572499990463257,1.1024999618530271
1.7926841508946847,-0.1534759998321533,-0.9767319560050964,-0.1359079927206039,-1.1375000476837158,2.012500047683716,1.190000057220459
1.8128266694440631,-0.1566479951143264,-0.9823439717292786,-0.1359079927206039,-0.9800000190734864,2.484999895095825,1.277500033378601
1.8329691879934416,-0.1583559960126876,-0.9845399856567384,-0.1368840038776397,-0.3149999976158142,3.3949999809265137,1.1549999713897705
1.85311170654282,-0.1566479951143264,-0.97843998670578,-0.1383479982614517,0.3149999976158142,3.849999904632568,1.1375000476837158
1.8732542250921984,-0.1542080044746399,-0.9711199998855592,-0.1368840038776397,0.1924999952316284,3.289999961853028,1.1024999618530271
1.8933967436415768,-0.1549399942159652,-0.972827970981598,-0.1385920047760009,-0.0874999985098838,2.694999933242798,0.7350000143051147
1.9135392621909553,-0.1586000025272369,-0.9835639595985411,-0.1412760019302368,-0.0350000001490116,2.5374999046325684,0.4900000095367431
1.9336817807403337,-0.1556719988584518,-0.9842959642410278,-0.1417640000581741,0.2450000047683715,2.799999952316284,0.3499999940395355
1.9538242992897121,-0.1578679978847503,-0.97843998670578,-0.1446920037269592,1.0850000381469729,4.8125,0.7524999976158142
1.9739668178390906,-0.1566479951143264,-0.9708759784698486,-0.1446920037269592,1.7324999570846558,3.115000009536743,1.2424999475479126
1.994109336388469,-0.1576239913702011,-0.9750239849090576,-0.1415199935436248,1.225000023841858,2.257499933242798,1.225000023841858
2.0142518549378474,-0.1566479951143264,-0.9818559885025024,-0.1415199935436248,0.7524999976158142,2.782500028610229,0.9975000023841858
2.034394373487226,-0.1564040035009384,-0.9838079810142516,-0.142984002828598,1.3300000429153442,4.007500171661377,1.1725000143051147
2.0545368920366043,-0.1590880006551742,-0.985759973526001,-0.1456679999828338,1.995000004768372,3.3949999809265137,1.3125
2.0746794105859827,-0.152988001704216,-0.9835639595985411,-0.147376000881195,3.307500123977661,5.039999961853027,3.325000047683716
2.094821929135361,-0.163235992193222,-0.97599995136261,-0.1459119915962219,4.235000133514404,6.755000114440918,6.195000171661377
2.1149644476847396,-0.1542080044746399,-0.9777079820632936,-0.1395680010318756,3.289999961853028,6.877500057220459,4.829999923706055
2.135106966234118,-0.1725080013275146,-0.9764879941940308,-0.1434720009565353,2.9049999713897705,8.942500114440918,3.569999933242798
2.1552494847834964,-0.1612839996814727,-0.9794159531593324,-0.1464000046253204,3.4649999141693115,7.490000247955322,3.587500095367432
2.175392003332875,-0.1744599938392639,-0.9659959673881532,-0.1390800029039383,4.375,5.005000114440918,6.317500114440918
2.1955345218822533,-0.1708000004291534,-0.966484010219574,-0.1334680020809173,2.9049999713897705,3.2725000381469727,4.164999961853027
2.2156770404316317,-0.1710439920425415,-0.9723399877548218,-0.1349319964647293,0.8400000333786011,2.9749999046325684,2.572499990463257
2.23581955898101,-0.1715319901704788,-0.9781959652900696,-0.1395680010318756,-0.2800000011920929,2.992500066757202,0.6299999952316284
2.2559620775303886,-0.1715319901704788,-0.9789279699325562,-0.1393239945173263,-0.5425000190734863,1.399999976158142,-0.5600000023841858
2.276104596079767,-0.1656759977340698,-0.9799039959907532,-0.1378600001335144,-0.9100000262260436,-3.7799999713897705,-1.5399999618530271
2.2962471146291454,-0.1661639958620071,-0.974291980266571,-0.134443998336792,0.1225000023841857,-0.7175000309944153,-0.7699999809265137
2.316389633178524,-0.1690919995307922,-0.969655990600586,-0.1359079927206039,0.0350000001490116,1.225000023841858,-0.1050000041723251
2.3365321517279023,-0.1737279891967773,-0.9757559895515442,-0.140299990773201,-1.0674999952316284,1.3125,0.0700000002980232
2.3566746702772807,-0.1729959994554519,-0.97843998670578,-0.1385920047760009,-0.5600000023841858,1.4874999523162842,-0.1574999988079071
2.376817188826659,-0.177387997508049,-0.9769759774208068,-0.140299990773201,0.262499988079071,0.7524999976158142,-0.1749999970197677
2.3969597073760376,-0.1756799966096878,-0.977952003479004,-0.1356640011072158,0.5074999928474426,-1.3825000524520874,-0.4900000095367431
2.417102225925416,-0.1788519918918609,-0.977952003479004,-0.1341999918222427,0.8050000071525574,-2.922499895095825,-0.8924999833106995
2.4372447444747944,-0.1761679947376251,-0.9777079820632936,-0.1354199945926666,0.5600000023841858,-6.212500095367432,-1.6974999904632568
2.457387263024173,-0.1683599948883056,-0.9828319549560548,-0.1376159936189651,0.332500010728836,-6.684999942779541,-2.852499961853028
2.4775297815735513,-0.1642120033502578,-0.9794159531593324,-0.1381039917469024,0.8400000333786011,-4.882500171661377,-2.450000047683716
2.4976723001229297,-0.1666519939899444,-0.9772199988365172,-0.1351760029792785,1.5575000047683716,-2.9049999713897705,-1.5924999713897705
2.517814818672308,-0.1725080013275146,-0.981611967086792,-0.1368840038776397,1.8899999856948853,-3.115000009536743,-1.0499999523162842
2.5379573372216866,-0.167383998632431,-0.9747799634933472,-0.1324919909238815,2.362499952316284,-4.777500152587891,-1.2949999570846558
2.558099855771065,-0.1695799976587295,-0.9738039970397948,-0.1354199945926666,1.9600000381469729,-4.375,-1.5575000047683716
2.5782423743204435,-0.1683599948883056,-0.981611967086792,-0.1390800029039383,1.3650000095367432,-5.652500152587891,-1.680000066757202
2.598384892869822,-0.1625040024518966,-0.977952003479004,-0.134443998336792,2.345000028610229,-5.775000095367432,-1.8200000524520876
2.6185274114192003,-0.1595759987831115,-0.9786840081214904,-0.1324919909238815,2.484999895095825,-5.827499866485596,-1.6974999904632568
2.6386699299685787,-0.1605519950389862,-0.9901520013809204,-0.1312720030546188,2.6424999237060547,-5.775000095367432,-1.190000057220459
2.658812448517957,-0.1581119894981384,-0.9896639585494996,-0.130295991897583,3.902499914169312,-4.007500171661377,-0.7875000238418579
2.6789549670673356,-0.1571359932422638,-0.97843998670578,-0.1317600011825561,4.340000152587891,-1.627500057220459,-0.9100000262260436
2.699097485616714,-0.1525000035762787,-0.97843998670578,-0.1363959908485412,3.5,-1.0325000286102295,-0.7175000309944153
2.7192400041660925,-0.1515239924192428,-0.9852719902992249,-0.134443998336792,3.2725000381469727,-0.4200000166893005,-0.2975000143051147
2.739382522715471,-0.1507920026779174,-0.9894199967384338,-0.1324919909238815,3.587500095367432,-0.0175000000745058,0.1400000005960464
2.7595250412648493,-0.1490840017795562,-0.9943000078201294,-0.138835996389389,3.692500114440918,0.0175000000745058,0.5074999928474426
2.7796675598142278,-0.1510359942913055,-0.9789279699325562,-0.1351760029792785,4.777500152587891,0.6825000047683716,0.5249999761581421
2.799810078363606,-0.1546960026025772,-0.962336003780365,-0.1295640021562576,4.8125,2.1524999141693115,0.6299999952316284
2.8199525969129846,-0.1581119894981384,-0.9796599745750428,-0.1434720009565353,2.0824999809265137,2.5199999809265137,1.1549999713897705
2.840095115462363,-0.1622599959373474,-0.9818559885025024,-0.1371279954910278,2.922499895095825,3.0625,0.8400000333786011
2.8602376340117415,-0.167383998632431,-0.962336003780365,-0.1232199966907501,3.884999990463257,3.5174999237060547,0.1050000041723251
2.88038015256112,-0.1683599948883056,-0.9616039991378784,-0.119559995830059,0.1400000005960464,3.8324999809265137,0.4900000095367431
2.9005226711104983,-0.1734839975833892,-0.9611159563064576,-0.1190719977021217,-0.2275000065565109,3.954999923706055,-0.0350000001490116
2.9206651896598768,-0.1729959994554519,-0.9686799645423888,-0.1249279975891113,-1.1549999713897705,3.5350000858306885,-0.4550000131130218
2.940807708209255,-0.1754359900951385,-0.9723399877548218,-0.1222440004348754,-0.8400000333786011,2.817500114440918,-0.962499976158142
2.9609502267586336,-0.1781200021505355,-0.985759973526001,-0.1239520013332367,-1.5399999618530271,2.5374999046325684,-0.6825000047683716
2.981092745308012,-0.1761679947376251,-0.9979599714279176,-0.1234639957547187,-1.0674999952316284,1.6100000143051147,-0.8400000333786011
3.0012352638573905,-0.1683599948883056,-0.9869799613952636,-0.114436000585556,0.8224999904632568,0.4200000166893005,-1.5399999618530271
3.021377782406769,-0.1708000004291534,-0.987223982810974,-0.1122400015592575,0.8224999904632568,0.0175000000745058,-1.6449999809265137
3.0415203009561473,-0.1747040003538131,-0.9862479567527772,-0.1088239997625351,0.4550000131130218,-0.5950000286102295,-1.1549999713897705
3.0616628195055258,-0.1778759956359863,-0.9845399856567384,-0.110287994146347,0.5249999761581421,-1.1200000047683716,-0.7699999809265137
3.081805338054904,-0.1829999983310699,-0.9838079810142516,-0.1080919951200485,1.0149999856948853,-1.3300000429153442,-1.0499999523162842
3.1019478566042826,-0.1781200021505355,-0.9821000099182128,-0.1083360016345977,2.0299999713897705,-1.4350000619888306,-1.680000066757202
3.122090375153661,-0.1749479919672012,-0.9838079810142516,-0.1163880005478859,2.2049999237060547,-1.662500023841858,-1.8899999856948853
3.1422328937030395,-0.1686040014028549,-0.9767319560050964,-0.1107759997248649,2.940000057220459,-2.5374999046325684,-2.240000009536743
3.162375412252418,-0.1666519939899444,-0.9833199977874756,-0.1029679998755455,2.2049999237060547,-2.8350000381469727,-2.275000095367432
3.1825179308017963,-0.1676279902458191,-0.9906399846076964,-0.1110199987888336,2.012500047683716,-2.922499895095825,-1.9424999952316284
3.2026604493511748,-0.1578679978847503,-0.9686799645423888,-0.1146799996495246,3.849999904632568,-3.0625,-1.9075000286102293
3.222802967900553,-0.1498159915208816,-0.9794159531593324,-0.1158999949693679,1.662500023841858,-2.992500066757202,-1.9600000381469729
3.2429454864499316,-0.1512800008058548,-1.0111359357833862,-0.1190719977021217,0.962499976158142,-2.799999952316284,-1.8200000524520876
3.26308800499931,-0.1620160043239593,-1.0016199350357056,-0.1088239997625351,6.877500057220459,-2.327500104904175,-2.0299999713897705
3.2832305235486885,-0.1603080034255981,-0.977463960647583,-0.0919879972934722,8.3125,-3.762500047683716,-2.047499895095825
3.303373042098067,-0.1542080044746399,-0.9659959673881532,-0.0863759964704513,4.637499809265137,-2.484999895095825,-1.5399999618530271
3.3235155606474454,-0.1512800008058548,-0.9594079852104188,-0.0888160020112991,1.9424999952316284,-2.6424999237060547,-1.277500033378601
3.343658079196824,-0.1466439962387085,-0.9694119691848756,-0.08661999553442,-0.3675000071525574,-2.6600000858306885,-1.1200000047683716
3.363800597746202,-0.1398119926452636,-0.9860039949417114,-0.0954039990901947,-2.2049999237060547,-1.1725000143051147,-1.7675000429153442
3.3839431162955806,-0.1363959908485412,-0.9801479578018188,-0.0983319953083992,-0.8224999904632568,-0.4200000166893005,-1.5750000476837158
3.404085634844959,-0.1307840049266815,-0.9994239807128906,-0.1085800006985664,-0.7175000309944153,1.4175000190734863,-2.502500057220459
3.4242281533943375,-0.1412760019302368,-1.009671926498413,-0.1117519959807396,3.0799999237060547,2.362499952316284,-1.2074999809265137
3.444370671943716,-0.1468880027532577,-0.9838079810142516,-0.1022359952330589,7.227499961853027,2.240000009536743,-1.2424999475479126
3.4645131904930944,-0.1481079906225204,-0.9667279720306396,-0.0975999981164932,5.40749979019165,2.450000047683716,-1.225000023841858
3.484655709042473,-0.1549399942159652,-0.9828319549560548,-0.0917439982295036,4.480000019073486,3.289999961853028,-1.3825000524520874
3.5047982275918512,-0.1525000035762787,-0.9777079820632936,-0.0875959992408752,3.990000009536743,3.0625,-1.7324999570846558
3.5249407461412297,-0.1544519960880279,-0.982587993144989,-0.0924759954214096,2.3975000381469727,3.622499942779541,-1.5924999713897705
3.545083264690608,-0.1554279923439026,-1.0084519386291504,-0.0949160009622573,1.4700000286102295,3.115000009536743,-0.8050000071525574
3.5652257832399865,-0.1637239903211593,-0.9969840049743652,-0.0905239954590797,3.5,3.6575000286102295,-0.8575000166893005
3.585368301789365,-0.158843994140625,-0.9769759774208068,-0.0914999991655349,4.09499979019165,2.1700000762939453,-0.8050000071525574
3.6055108203387434,-0.1534759998321533,-0.9689239859580994,-0.0893040001392364,2.6424999237060547,2.0824999809265137,-0.332500010728836
3.625653338888122,-0.1576239913702011,-0.9813680052757264,-0.0949160009622573,0.7875000238418579,1.784999966621399,-0.1924999952316284
3.6457958574375002,-0.1607960015535354,-0.9796599745750428,-0.0944279953837394,0.3499999940395355,1.3300000429153442,-0.5774999856948853
3.6659383759868787,-0.1593319922685623,-0.9808799624443054,-0.0936959981918335,-0.4550000131130218,1.2424999475479126,-0.7524999976158142
3.686080894536257,-0.1620160043239593,-0.9847840070724488,-0.0922319963574409,-1.3650000095367432,1.1549999713897705,-0.6825000047683716
3.7062234130856355,-0.1600639969110489,-0.9911279678344728,-0.0932080000638961,-1.4700000286102295,0.1749999970197677,-0.4375
3.726365931635014,-0.1634799987077713,-0.995519995689392,-0.0975999981164932,-0.0874999985098838,-1.1200000047683716,0.0700000002980232
3.7465084501843924,-0.1637239903211593,-0.977952003479004,-0.0941839963197708,1.0674999952316284,-2.065000057220459,0.1574999988079071
3.766650968733771,-0.163235992193222,-0.9813680052757264,-0.0954039990901947,-0.4200000166893005,-2.327500104904175,0.3149999976158142
3.7867934872831492,-0.1610399931669235,-0.994055986404419,-0.0946719944477081,-0.6474999785423279,-2.484999895095825,0.4375
3.8069360058325277,-0.1559159904718399,-0.990395963191986,-0.0978439971804618,1.225000023841858,-2.5899999141693115,0.6474999785423279
3.827078524381906,-0.1507920026779174,-0.9925919771194458,-0.0934519991278648,2.2925000190734863,-3.3424999713897705,1.5750000476837158
3.8472210429312845,-0.1515239924192428,-0.9750239849090576,-0.0912560001015663,3.6575000286102295,-4.252500057220459,2.0299999713897705
3.867363561480663,-0.1534759998321533,-0.9620919823646544,-0.0849120020866394,2.677500009536743,-4.077499866485596,0.612500011920929
3.8875060800300414,-0.1625040024518966,-0.977463960647583,-0.0863759964704513,-0.6825000047683716,-4.392499923706055,0.7699999809265137
3.90764859857942,-0.167383998632431,-0.9952759742736816,-0.0768599957227706,-0.7699999809265137,-4.847499847412109,0.4200000166893005
3.9277911171287982,-0.1539639979600906,-1.0128439664840698,-0.0883279964327812,-0.9100000262260436,-5.005000114440918,0.1924999952316284
3.9479336356781767,-0.1451800018548965,-1.006011962890625,-0.0936959981918335,1.225000023841858,-5.197500228881836,0.262499988079071
3.968076154227555,-0.13468798995018,-0.9791719913482666,-0.0875959992408752,3.5174999237060547,-5.320000171661377,0.699999988079071
3.9882186727769335,-0.1356640011072158,-0.9823439717292786,-0.0936959981918335,1.3650000095367432,-4.900000095367432,1.9075000286102293
4.008361191326312,-0.1442039906978607,-0.9962520003318788,-0.0993079990148544,0.262499988079071,-4.707499980926514,2.0999999046325684
4.02850370987569,-0.1522559970617294,-0.9864919781684875,-0.0917439982295036,2.0999999046325684,-4.357500076293945,1.4175000190734863
4.048646228425069,-0.1534759998321533,-0.9772199988365172,-0.0836919993162155,2.747499942779541,-3.447499990463257,1.399999976158142
4.068788746974447,-0.1556719988584518,-0.981123983860016,-0.0861319974064827,1.6974999904632568,-2.3975000381469727,1.8899999856948853
4.088931265523826,-0.1644559949636459,-0.9801479578018188,-0.0973559990525245,1.5049999952316284,-3.325000047683716,0.4025000035762787
4.109073784073204,-0.1512800008058548,-0.9652639627456664,-0.1019919961690902,1.8899999856948853,-3.552500009536743,0.3149999976158142
4.1292163026225825,-0.1542080044746399,-0.9855159521102904,-0.1024799942970275,0.1225000023841857,-3.430000066757202,0.8400000333786011
4.149358821171961,-0.1466439962387085,-1.0033279657363892,-0.0949160009622573,-0.4200000166893005,-3.255000114440918,0.3149999976158142
4.169501339721339,-0.130295991897583,-0.9801479578018188,-0.0907679945230484,1.0325000286102295,-2.345000028610229,-0.0874999985098838
4.189643858270718,-0.105163998901844,-1.043344020843506,-0.0968680009245872,2.327500104904175,-8.102499961853027,6.335000038146973
4.209786376820096,-0.152988001704216,-0.97843998670578,-0.0773480013012886,12.880000114440918,7.752500057220459,9.0649995803833
4.229928895369475,-0.1105320006608963,-0.962336003780365,-0.0800319984555244,11.322500228881836,9.467499732971191,-2.625
4.250071413918853,-0.1015039980411529,-0.987223982810974,-0.0771040022373199,1.1549999713897705,3.745000123977661,-0.2975000143051147
4.2702139324682316,-0.1090679988265037,-1.0125999450683594,-0.0710039958357811,3.184999942779541,6.230000019073486,1.4350000619888306
4.29035645101761,-0.1176079958677291,-0.9889319539070128,-0.0656360015273094,6.247499942779541,8.75,1.399999976158142
4.310498969566988,-0.1263919919729232,-0.9906399846076964,-0.0668559968471527,4.025000095367432,10.850000381469728,2.572499990463257
4.330641488116367,-0.1454239934682846,-0.9823439717292786,-0.062219999730587,5.09250020980835,12.792500495910645,2.0824999809265137
4.350784006665745,-0.175924003124237,-1.0069879293441772,-0.0868639945983886,4.585000038146973,14.9975004196167,0.9975000023841858
4.370926525215124,-0.1725080013275146,-0.9850279688835144,-0.0619760006666183,10.5,12.914999961853027,0.1225000023841857
4.391069043764502,-0.1603080034255981,-0.9311040043830872,-0.0458719991147518,10.149999618530272,11.550000190734863,-0.1400000005960464
4.411211562313881,-0.1854400038719177,-0.9545279741287231,-0.0470919981598854,3.237499952316284,10.8149995803833,1.3125
4.431354080863259,-0.2715719938278198,-1.006011962890625,-0.1683599948883056,3.692500114440918,10.640000343322754,-0.1924999952316284
4.451496599412637,-0.1266359984874725,-1.0021079778671265,0.0985759943723678,37.55500030517578,47.42499923706055,-46.619998931884766
4.471639117962016,-0.2237479984760284,-1.093608021736145,-0.076615996658802,21.052499771118164,27.229999542236328,-8.172499656677246
4.491781636511394,-0.1995919942855835,-0.969655990600586,-0.0092719998210668,42.0525016784668,16.957500457763672,-3.674999952316284
4.511924155060773,-0.1476199924945831,-0.9557479619979858,0.0451399981975555,19.75749969482422,3.6575000286102295,1.6100000143051147
4.532066673610151,-0.1495719999074936,-0.9289079904556274,0.0014639999717473,9.572500228881836,-2.765000104904175,2.362499952316284
4.55220919215953,-0.1217559948563575,-1.001376032829285,-0.0224479995667934,0.9975000023841858,-3.377500057220459,2.380000114440918
4.572351710708908,-0.1332239955663681,-0.9625799655914308,0.0051239999011158,-0.9449999928474426,-3.377500057220459,3.797500133514404
4.592494229258286,-0.1539639979600906,-1.0587159395217896,-0.0358680002391338,-10.8149995803833,-1.5924999713897705,5.704999923706055
4.612636747807665,-0.1647000014781952,-1.112396001815796,-0.0346480011940002,11.234999656677246,-1.5399999618530271,2.852499961853028
4.632779266357043,-0.1571359932422638,-1.157047986984253,-0.0285479985177516,40.442501068115234,-5.389999866485596,9.380000114440918
4.652921784906422,-0.1178519949316978,-0.750544011592865,-0.0153719997033476,41.58000183105469,-3.220000028610229,7.857500076293945
4.6730643034558,-0.1446920037269592,-0.8903560042381287,0.0185439996421337,5.074999809265137,-0.9449999928474426,5.565000057220459
4.693206822005179,-0.2122799903154373,-1.0296800136566162,-0.0207399986684322,-16.65999984741211,1.4874999523162842,4.865000247955322
4.713349340554557,-0.2125239968299865,-0.9969840049743652,-0.0234239995479583,-6.317500114440918,-3.849999904632568,2.6600000858306885
4.733491859103935,-0.2415599972009658,-0.9320799708366394,0.0319640003144741,-12.6875,-17.832500457763672,4.707499980926514
4.753634377653314,-0.1808039993047714,-1.022603988647461,-0.115167997777462,-45.220001220703125,-62.51000213623047,10.0625
4.773776896202692,-0.0570959970355033,-0.9913719892501832,-0.0385520011186599,-5.144999980926514,-11.357500076293944,9.904999732971191
4.793919414752071,-0.4533520042896271,-0.9237839579582214,0.0275719985365867,-0.6299999952316284,-15.154999732971191,50.907501220703125
4.814061933301449,-0.153231993317604,-1.071403980255127,-0.0590479969978332,-10.149999618530272,-30.57250022888184,0.0350000001490116
4.834204451850828,-0.1803160011768341,-0.9574559926986694,-0.0143959997221827,6.824999809265137,-12.267499923706056,-0.4200000166893005
4.854346970400206,-0.1756799966096878,-0.9350079894065856,-0.0307439994066953,-0.9449999928474426,-4.8125,3.237499952316284
4.8744894889495844,-0.1661639958620071,-0.9606279730796814,-0.0439199991524219,0.612500011920929,9.55500030517578,5.25
4.894632007498963,-0.1644559949636459,-0.9579439759254456,-0.1171199977397918,6.300000190734863,22.03249931335449,4.917500019073486
4.914774526048341,-0.2195999920368194,-0.9637999534606934,-0.0041479999199509,3.884999990463257,31.482500076293945,8.6274995803833
4.93491704459772,-0.2374119907617569,-1.065303921699524,-0.0168359987437725,-11.88249969482422,18.270000457763672,5.460000038146973
4.955059563147098,-0.1966639906167984,-1.007475972175598,0.0348920002579689,0.7175000309944153,-4.585000038146973,3.849999904632568
4.975202081696477,-0.3618519902229309,-0.8786439895629883,0.0175679996609687,-5.84499979019165,-31.482500076293945,2.275000095367432
4.995344600245855,0.0492879971861839,-1.050176024436951,-0.1546960026025772,-58.97499847412109,-116.84750366210938,0.1225000023841857
5.0154871187952335,-0.3081719875335693,-0.9642879962921144,0.0158599987626075,8.505000114440918,30.887500762939453,-1.8550000190734863
5.035629637344612,-0.1107759997248649,-1.0467599630355835,-0.1137039959430694,-13.96500015258789,-14.717499732971191,4.164999961853027
5.05577215589399,-0.2305800020694732,-0.9718520045280457,-0.0248879995197057,6.002500057220459,17.604999542236328,0.4550000131130218
5.075914674443369,-0.2093520015478134,-0.970143973827362,0.0402599982917308,10.149999618530272,-0.7350000143051147,-1.277500033378601
5.096057192992747,-0.1829999983310699,-0.9689239859580994,0.0636840015649795,6.597499847412109,-12.72249984741211,-2.2225000858306885
5.116199711542126,-0.1722639948129654,-0.9486719965934752,-0.0212280005216598,-8.697500228881836,-11.74250030517578,-0.2800000011920929
5.136342230091504,-0.1122400015592575,-0.9259799718856812,-0.118827998638153,-21.94499969482422,-18.357500076293945,4.025000095367432
5.1564847486408825,-0.0975999981164932,-0.9393999576568604,-0.0258639995008707,-1.8025000095367432,33.372501373291016,-0.4724999964237213
5.176627267190261,-0.2386319935321808,-0.8876720070838928,0.0212280005216598,-7.070000171661377,46.970001220703125,-6.579999923706055
5.196769785739639,-0.153231993317604,-1.1084920167922974,-0.0641719996929168,-47.1974983215332,-31.3075008392334,-0.2100000083446502
5.216912304289018,-0.0827159956097602,-1.0689640045166016,-0.095891997218132,-37.712501525878906,-18.82999992370605,-10.010000228881836
5.237054822838396,-0.0690519958734512,-0.9757559895515442,0.020983999595046,-39.567501068115234,-38.95500183105469,-9.397500038146973
5.257197341387775,-0.1219999939203262,-0.9108519554138184,-0.181779995560646,-48.86000061035156,-59.16749954223633,-9.957500457763672
5.277339859937153,-0.0941839963197708,-1.1982840299606323,-0.0629519969224929,-41.45750045776367,-58.88750076293945,-7.420000076293945
5.2974823784865315,0.0727119967341423,-1.0670119524002075,0.2335079908370971,-15.71500015258789,-53.91749954223633,-10.1850004196167
5.31762489703591,-0.5450959801673889,-0.6056079864501953,-0.5023959875106812,-40.775001525878906,-51.69499969482422,31.815000534057617
5.337767415585288,-0.0888160020112991,-0.8901119828224182,-0.0009759999811649,-17.184999465942383,-59.0625,-6.545000076293945
5.357909934134667,-0.5655919909477234,-1.115567922592163,-0.3645359873771667,-14.244999885559082,-10.342499732971191,12.337499618530272
5.378052452684045,-0.5721799731254578,-1.0850679874420166,-0.0968680009245872,42.42000198364258,20.614999771118164,-0.6299999952316284
5.398194971233424,-0.3076840043067932,-0.8286240100860596,-0.0400159992277622,38.587501525878906,-6.195000171661377,-1.8550000190734863
5.418337489782802,-0.4238280057907104,-0.6888119578361511,-0.1710439920425415,22.68000030517578,8.225000381469727,6.667500019073486
5.4384800083321805,-0.5343599915504456,-0.6058520078659058,-0.2274079918861389,-2.345000028610229,43.33000183105469,33.35499954223633
5.458622526881559,-0.3625839948654175,-1.0269960165023804,-0.0936959981918335,-10.237500190734863,64.8550033569336,48.63249969482422
5.478765045430937,-0.0178119987249374,-1.2700200080871582,-0.0219599995762109,-0.1574999988079071,85.54000091552734,28.489999771118164
5.498907563980316,-0.0553879998624324,-1.055299997329712,0.0768599957227706,0.4025000035762787,90.61499786376952,6.28249979019165
5.519050082529694,-0.0946719944477081,-0.9786840081214904,-0.1307840049266815,-28.315000534057617,53.20000076293945,14.175000190734863
5.539192601079073,-0.1586000025272369,-0.8903560042381287,-0.1073599979281425,-30.852500915527344,2.870000123977661,9.362500190734863
5.559335119628451,-0.1876360028982162,-0.9611159563064576,-0.399183988571167,-61.6875,-9.887499809265137,21.29750061035156
5.5794776381778295,-0.2525399923324585,-1.0745760202407837,-0.1878799945116043,-11.40999984741211,16.082500457763672,13.0024995803833
5.599620156727208,-0.2210640013217926,-0.9830759763717652,-0.1115079969167709,5.110000133514404,11.515000343322754,9.625
5.619762675276586,-0.2222839891910553,-1.0960479974746704,-0.1512800008058548,17.639999389648438,1.3125,4.900000095367432
5.639905193825965,-0.2776719927787781,-1.0289479494094849,-0.1027240008115768,38.9900016784668,4.375,-0.8224999904632568
5.660047712375343,-0.2740119993686676,-1.0328519344329834,-0.2208199948072433,38.0625,19.63500022888184,-6.247499942779541
5.680190230924722,-0.2461960017681121,-0.8247199654579163,-0.181779995560646,32.04249954223633,41.00249862670898,-5.442500114440918
5.7003327494741,-0.2544919848442077,-0.8308199644088745,-0.0151279997080564,11.637499809265137,21.997499465942383,1.9774999618530276
5.7204752680234785,-0.2471719980239868,-0.8803519606590271,-0.0663679987192154,0.2100000083446502,1.1549999713897705,6.912499904632568
5.740617786572857,-0.2020319998264312,-0.9049959778785706,-0.1332239955663681,-11.130000114440918,5.914999961853027,10.02750015258789
5.760760305122235,-0.2525399923324585,-0.900115966796875,-0.1678719967603683,-12.1274995803833,12.145000457763672,14.4375
5.780902823671614,-0.2779159843921661,-0.990884006023407,-0.1729959994554519,0.962499976158142,20.877500534057617,13.702500343322754
5.801045342220992,-0.3213479816913605,-1.1438720226287842,-0.1259039938449859,16.39750099182129,26.670000076293945,2.380000114440918
5.821187860770371,-0.350627988576889,-1.0572519302368164,-0.0424560010433197,33.494998931884766,19.477500915527344,-4.130000114440918
5.841330379319749,-0.3342799842357635,-0.7893399596214294,0.0014639999717473,39.54999923706055,7.752500057220459,-3.115000009536743
5.8614728978691275,-0.3203719854354858,-0.8281359672546387,-0.0405040010809898,20.07250022888184,0.6474999785423279,-2.6075000762939453
5.881615416418506,-0.2727919816970825,-0.7937319874763489,-0.0936959981918335,1.4350000619888306,6.422500133514404,-2.6075000762939453
5.901757934967884,-0.2330199927091598,-1.0926319360733032,-0.0102479998022317,-27.70249938964844,20.49250030517578,-1.277500033378601
5.921900453517263,-0.3035359978675842,-0.8266719579696655,-0.1334680020809173,-11.77750015258789,42.997501373291016,-4.269999980926514
5.942042972066641,-0.2766959965229034,-1.048467993736267,-0.0331839993596077,-20.667499542236328,-6.037499904632568,-6.195000171661377
5.96218549061602,-0.1764120012521743,-0.93012797832489,-0.1688479930162429,-2.065000057220459,8.067500114440918,-8.242500305175781
5.982328009165398,-0.2208199948072433,-0.854487955570221,-0.0258639995008707,-16.135000228881836,12.425000190734863,3.762500047683716
6.0024705277147765,-0.2320439964532852,-0.8303319811820984,-0.118827998638153,-35.17499923706055,21.84000015258789,11.217499732971191
6.022613046264155,-0.2117919921875,-1.1646119356155396,-0.1090679988265037,-56.33250045776367,13.09000015258789,10.920000076293944
6.042755564813533,-0.2156959921121597,-1.1660759449005127,-0.0387960001826286,-30.729999542236328,-6.755000114440918,10.237500190734863
6.062898083362912,-0.2766959965229034,-0.9584319591522216,-0.1851959973573684,5.809999942779541,6.159999847412109,0.5774999856948853
6.08304060191229,-0.310368001461029,-0.9406200051307678,-0.0697840005159378,28.087499618530277,15.802499771118164,2.0299999713897705
6.103183120461669,-0.3728320002555847,-1.1001960039138794,-0.0644159987568855,-2.5899999141693115,21.122499465942383,4.777500152587891
6.123325639011047,-0.3516039848327636,-1.091655969619751,-0.0839359983801841,5.09250020980835,-6.492499828338623,-0.262499988079071
6.1434681575604255,-0.3003639876842499,-1.0850679874420166,-0.1383479982614517,21.122499465942383,-7.0,-6.737500190734863
6.163610676109804,-0.2866999804973602,-1.06359601020813,-0.0978439971804618,34.5099983215332,3.674999952316284,-11.427499771118164
6.183753194659182,-0.2735239863395691,-0.8610759973526001,-0.0739319995045661,56.209999084472656,-6.037499904632568,-10.010000228881836
6.203895713208561,-0.2420479953289032,-0.7805559635162354,-0.1112639978528022,43.45249938964844,-13.93000030517578,-0.2975000143051147
6.224038231757939,-0.2503440082073211,-1.0284600257873535,-0.1351760029792785,31.167499542236328,-10.1850004196167,9.537500381469728
6.244180750307318,-0.2332639992237091,-0.9232959747314452,-0.085156001150608,44.09999847412109,-8.837499618530273,12.442500114440918
6.264323268856696,-0.2705959975719452,-0.9662399888038636,-0.0778359994292259,35.4375,9.835000038146973,3.447499990463257
6.2844657874060745,-0.2708399891853332,-0.9877119660377502,-0.1107759997248649,23.467500686645508,15.032500267028809,-2.572499990463257
6.304608305955453,-0.297435998916626,-1.0557879209518433,-0.1566479951143264,23.012500762939453,15.78499984741211,-16.642499923706055
6.324750824504831,-0.2622999846935272,-0.9071919918060304,-0.0883279964327812,59.92000198364258,4.934999942779541,-20.05500030517578
6.34489334305421,-0.2342399954795837,-0.8630279898643494,-0.0741759985685348,73.76249694824219,-5.670000076293945,-7.087500095367432
6.365035861603588,-0.2137439996004104,-0.8940159678459167,-0.0717360004782676,52.32500076293945,-10.605000495910645,-2.817500114440918
6.385178380152967,-0.2357039898633957,-1.0238239765167236,-0.003171999938786,32.63750076293945,-13.335000038146973,-8.960000038146973
6.405320898702345,-0.2235039919614792,-1.101904034614563,-0.0361119993031024,27.19499969482422,-21.857500076293945,-16.204999923706055
6.4254634172517235,-0.2571759819984436,-0.9608719944953918,-0.0173240005970001,38.0625,-21.01749992370605,-26.372499465942383
6.445605935801102,-0.2183799892663955,-0.925491988658905,-0.0431879982352256,41.49250030517578,-15.78499984741211,-25.602500915527344
6.46574845435048,-0.1439599990844726,-0.9750239849090576,-0.1027240008115768,28.38500022888184,-14.262499809265137,-21.59499931335449
6.485890972899859,-0.1232199966907501,-0.935252010822296,-0.0436760000884532,0.4025000035762787,20.51000022888184,-20.7549991607666
6.506033491449237,-0.1544519960880279,-0.8598560094833374,-0.0261080004274845,-7.945000171661377,29.854999542236328,-12.845000267028809
6.526176009998616,-0.2213079929351806,-1.0140639543533323,-0.0092719998210668,-24.9375,36.872501373291016,-1.5049999952316284
6.546318528547994,-0.1905639916658401,-1.0699399709701538,-0.0141519997268915,-22.417499542236328,26.25,-2.555000066757202
6.5664610470973725,-0.1988599896430969,-1.0140639543533323,0.0385520011186599,-11.130000114440918,20.614999771118164,-10.010000228881836
6.586603565646751,-0.1644559949636459,-1.0343159437179563,0.028303999453783,3.237499952316284,9.135000228881836,-14.734999656677246
6.606746084196129,-0.1263919919729232,-1.0962920188903809,-0.0546559989452362,14.210000038146973,-1.5924999713897705,-19.477500915527344
6.626888602745508,-0.1495719999074936,-1.0689640045166016,-0.0390399992465972,15.417500495910645,3.150000095367432,-24.79750061035156
6.647031121294886,-0.1617719978094101,-0.965507984161377,0.0290360003709793,10.920000076293944,11.40999984741211,-21.997499465942383
6.667173639844265,-0.1349319964647293,-0.8671759963035583,0.0448959991335868,3.1675000190734863,9.572500228881836,-12.390000343322754
6.687316158393643,-0.1317600011825561,-0.908411979675293,-0.010491999797523,-8.295000076293945,2.940000057220459,-1.0674999952316284
6.707458676943022,-0.1376159936189651,-0.9994239807128906,-0.0588039979338645,-8.819999694824219,2.012500047683716,1.9424999952316284
6.7276011954924,-0.1298079937696457,-0.9823439717292786,-0.0275719985365867,-5.6875,6.894999980926514,-3.674999952316284
6.747743714041778,-0.0997959971427917,-0.9193919897079468,-0.0278159994632005,-9.467499732971191,2.240000009536743,-5.005000114440918
6.767886232591157,-0.0846679955720901,-0.9840520024299622,-0.0727119967341423,-14.262499809265137,-1.784999966621399,-1.4700000286102295
6.788028751140535,-0.0993079990148544,-0.9662399888038636,-0.0595359988510608,-13.404999732971191,2.572499990463257,1.0850000381469729
6.808171269689914,-0.1015039980411529,-0.9091439843177797,-0.0417240001261234,-20.177499771118164,7.699999809265137,4.409999847412109
6.828313788239292,-0.1581119894981384,-0.944279968738556,-0.0158599987626075,-24.02750015258789,15.470000267028809,9.99250030517578
6.848456306788671,-0.1829999983310699,-1.0950720310211182,-0.0578279979526996,-23.799999237060547,10.587499618530272,8.609999656677246
6.868598825338049,-0.1659199893474578,-1.0611560344696045,-0.0583159998059272,-5.215000152587891,8.78499984741211,0.2800000011920929
6.888741343887427,-0.1734839975833892,-0.9945439696311952,-0.0400159992277622,1.1725000143051147,5.477499961853027,-1.3650000095367432
6.908883862436806,-0.171775996685028,-0.9437919855117798,-0.0275719985365867,0.1574999988079071,4.637499809265137,0.9449999928474426
6.929026380986184,-0.2083759903907776,-0.8647359609603882,0.1229759976267814,-8.4350004196167,1.5225000381469729,9.59000015258789
6.949168899535563,-0.0727119967341423,-1.1111760139465332,-0.3306199908256531,-31.989999771118164,11.899999618530272,0.5600000023841858
6.969311418084941,-0.1661639958620071,-1.073599934577942,-0.1036999970674514,-8.732500076293945,3.132499933242798,6.177500247955322
6.98945393663432,-0.147376000881195,-1.0584720373153689,-0.0485559999942779,5.862500190734863,-1.0325000286102295,1.8200000524520876
7.009596455183698,-0.1898320019245147,-1.0496879816055298,-0.0165919996798038,17.622499465942383,-6.650000095367432,-2.712500095367432
7.029738973733076,-0.1373720020055771,-1.0116239786148071,0.0080519998446106,18.95249938964844,-3.884999990463257,-10.255000114440918
7.049881492282455,-0.0568519979715347,-1.2175599336624146,-0.1239520013332367,-8.78499984741211,-25.84749984741211,-10.307499885559082
7.070024010831833,-0.046604000031948,-1.1343560218811035,-0.0802759975194931,21.559999465942383,-25.1299991607666,-43.81999969482422
7.090166529381212,-0.0975999981164932,-0.7695760130882263,-0.0795440003275871,-5.460000038146973,18.07749938964844,-17.850000381469727
7.11030904793059,-0.1576239913702011,-0.8559519648551941,0.0097599998116493,-11.0600004196167,17.657499313354492,-1.399999976158142
7.130451566479969,-0.2039839923381805,-0.9747799634933472,0.0004879999905824,1.6449999809265137,15.78499984741211,5.40749979019165
7.150594085029347,-0.1612839996814727,-0.9408639669418336,0.0100039998069405,13.2475004196167,5.127500057220459,12.670000076293944
7.170736603578725,-0.1056519970297813,-1.050663948059082,-0.0131759997457265,-8.8725004196167,-10.797499656677246,17.09749984741211
7.190879122128104,-0.1007720008492469,-1.1228879690170288,-0.0914999991655349,-28.104999542236328,-18.725000381469727,7.997499942779541
7.211021640677482,-0.1359079927206039,-0.9718520045280457,-0.0307439994066953,-41.87749862670898,-29.190000534057617,8.067500114440918
7.231164159226861,-0.1137039959430694,-1.0721359252929688,-0.0573399998247623,-46.77750015258789,-28.262500762939453,3.902499914169312
7.251306677776239,-0.1439599990844726,-0.9720959663391112,-0.0885719954967498,-22.38249969482422,-21.89249992370605,3.0975000858306885
7.271449196325618,-0.2520520091056824,-0.952575981616974,-0.1298079937696457,3.9375,-0.699999988079071,0.0700000002980232
7.291591714874996,-0.0034159999340772,-1.0899479389190674,-0.095891997218132,51.6775016784668,32.39250183105469,7.385000228881836
7.3117342334243745,-0.1947119981050491,-1.0784800052642822,0.020983999595046,9.467499732971191,15.154999732971191,-6.824999809265137
7.331876751973753,0.0485559999942779,-1.1150799989700315,-0.1117519959807396,-17.167499542236328,-12.529999732971191,-16.625
7.352019270523131,-0.3652679920196533,-0.8054440021514893,0.2410719990730285,70.71749877929688,64.10250091552734,-30.39750099182129
7.37216178907251,-0.3113439977169037,-0.9147560000419616,0.0941839963197708,25.795000076293945,-6.84250020980835,-9.327500343322754
7.392304307621888,-0.2513200044631958,-0.8884040117263794,0.0312319993972778,21.90999984741211,-6.387499809265137,-5.09250020980835
7.412446826171267,-0.1290760040283203,-0.8859639763832092,0.0485559999942779,2.047499895095825,-10.482500076293944,1.6100000143051147
7.432589344720645,-0.0536799989640712,-1.1170319318771362,-0.0041479999199509,1.7675000429153442,-12.600000381469728,6.335000038146973
7.4527318632700235,-0.0736880004405975,-1.040903925895691,0.0097599998116493,13.05500030517578,-22.155000686645508,-3.3949999809265137
7.472874381819402,-0.1839759945869445,-0.8905999660491943,-0.0729559957981109,2.1700000762939453,-7.157500267028809,3.184999942779541
7.49301690036878,-0.1771439909934997,-0.8574159741401672,0.0109799997881054,-23.76499938964844,18.287500381469727,13.352499961853027
7.513159418918159,-0.1115079969167709,-0.9506239891052246,-0.0009759999811649,-62.1775016784668,-1.3300000429153442,25.655000686645508
7.533301937467537,0.0885719954967498,-1.043344020843506,-0.1239520013332367,-62.40499877929688,-5.862500190734863,28.192501068115234
7.553444456016916,0.038307998329401,-1.1463119983673096,-0.2195999920368194,-42.27999877929688,-1.8550000190734863,15.417500495910645
7.573586974566294,-0.1642120033502578,-1.1919399499893188,-0.0997959971427917,-24.780000686645508,4.900000095367432,-4.585000038146973
7.5937294931156725,-0.2452199906110763,-1.1058080196380615,-0.0727119967341423,-14.5600004196167,-13.457500457763672,-17.079999923706055
7.613872011665051,-0.1478639990091323,-0.918172001838684,-0.0287919994443655,18.059999465942383,-12.6875,-30.274999618530277
7.634014530214429,-0.0636840015649795,-0.9215880036354064,-0.0531919971108436,21.45499992370605,-12.512499809265137,-22.24250030517578
7.654157048763808,-0.0934519991278648,-0.9821000099182128,-0.0963799953460693,11.34000015258789,-4.690000057220459,-18.67250061035156
7.674299567313186,-0.071492001414299,-1.0723799467086792,-0.1171199977397918,24.46500015258789,-1.8200000524520876,-21.89249992370605
7.694442085862565,-0.1354199945926666,-1.012112021446228,-0.0919879972934722,-6.300000190734863,2.4674999713897705,1.6100000143051147
7.714584604411943,0.0993079990148544,-1.0265079736709597,-0.1849519908428192,6.789999961853027,6.772500038146973,0.2450000047683715
7.7347271229613215,-0.0553879998624324,-0.9508680105209352,-0.0129319997504353,16.520000457763672,5.6875,3.0799999237060547
7.7548696415107,-0.1620160043239593,-0.9201239943504332,-0.0117119997739791,8.925000190734863,4.882500171661377,10.710000038146973
7.775012160060078,-0.0380639992654323,-0.9218319654464722,-0.085887998342514,-4.602499961853027,3.009999990463257,12.057499885559082
7.795154678609457,-0.1581119894981384,-0.9430599808692932,-0.0280600003898143,-12.1274995803833,13.982500076293944,10.832500457763672
7.815297197158835,-0.0736880004405975,-1.1270359754562378,0.0185439996421337,-17.657499313354492,-4.322500228881836,-7.105000019073486
7.835439715708214,-0.0768599957227706,-1.118008017539978,-0.1586000025272369,1.9075000286102293,-4.304999828338623,-9.25749969482422
7.855582234257592,-0.4021120071411133,-1.0003999471664429,-0.0275719985365867,24.95499992370605,-0.9800000190734864,-1.1200000047683716
7.8757247528069705,-0.0246439985930919,-1.014796018600464,-0.0124439997598528,26.0049991607666,-2.4674999713897705,5.897500038146973
7.895867271356349,-0.2171600013971328,-0.826915979385376,-0.0819839984178543,31.07999992370605,2.625,19.0049991607666
7.916009789905727,-0.0614879988133907,-1.148263931274414,-0.0163480006158351,-3.132499933242798,24.43000030517578,20.895000457763672
7.936152308455106,-0.0161039996892213,-0.9149999618530272,0.0017079999670386,6.177500247955322,14.06999969482422,30.22249984741211
7.956294827004484,-0.1246839985251426,-1.0243120193481443,-0.0551439970731735,-10.6225004196167,6.702499866485596,19.21500015258789
7.976437345553863,-0.2544919848442077,-1.0035719871520996,0.0007319999858736,1.680000066757202,1.715000033378601,0.1400000005960464
7.996579864103241,-0.3596560060977936,-0.9667279720306396,0.0451399981975555,14.087499618530272,-3.569999933242798,0.1574999988079071
8.01672238265262,-0.346235990524292,-0.8147159814834595,0.0431879982352256,6.5625,4.497499942779541,2.4674999713897705
8.036864901202,-0.2366800010204315,-0.969655990600586,-0.0968680009245872,-8.032500267028809,6.335000038146973,-4.357500076293945
8.057007419751379,-0.4006479978561401,-0.9045079946517944,0.1378600001335144,6.510000228881836,-13.0024995803833,-25.6200008392334
8.077149938300758,-0.1983719915151596,-0.9877119660377502,-0.1449359953403473,9.22249984741211,-41.86000061035156,-45.16749954223633
8.097292456850138,0.08661999553442,-1.0357799530029297,0.1605519950389862,7.034999847412109,-89.5999984741211,-47.70500183105469
8.117434975399517,-0.1158999949693679,-0.9279319643974304,0.0861319974064827,-24.850000381469727,-82.51249694824219,21.717500686645508
8.137577493948896,-0.3445279896259308,-0.9928359985351562,-0.0614879988133907,-31.325000762939453,-106.43499755859376,52.36000061035156
8.157720012498276,-0.1363959908485412,-1.1131279468536377,-0.0448959991335868,7.769999980926514,-112.55999755859376,38.185001373291016
8.177862531047655,0.1041879951953888,-1.062619924545288,0.1063839942216873,52.08000183105469,-103.0749969482422,14.1225004196167
8.198005049597034,0.0146399997174739,-1.0343159437179563,0.3230559825897217,82.96749877929688,-71.59249877929688,3.5350000858306885
8.218147568146414,0.0163480006158351,-0.8981639742851257,0.0505079999566078,90.00250244140625,-119.875,8.645000457763672
8.238290086695793,-0.2452199906110763,-1.0633519887924194,0.104432001709938,77.31500244140625,-109.76000213623048,16.764999389648438
8.258432605245172,-0.1812919974327087,-1.1660759449005127,-0.114436000585556,60.095001220703125,-75.66999816894531,-0.8224999904632568
8.278575123794552,-0.1761679947376251,-1.0584720373153689,0.2713280022144317,50.01499938964844,-65.20500183105469,-23.537500381469727
8.29871764234393,-0.4135800004005432,-0.708575963973999,0.2906039953231811,86.46749877929688,-179.97000122070312,45.36000061035156
8.31886016089331,-0.2701079845428467,-0.9552599787712096,0.2408279925584793,74.7074966430664,-187.0225067138672,51.53749847412109
8.33900267944269,-0.0846679955720901,-1.0348039865493774,0.3711239993572235,4.375,-203.8925018310547,70.17500305175781
8.359145197992069,-0.1459119915962219,-0.7990999817848206,0.3574599921703338,-50.994998931884766,-219.69500732421875,102.25250244140624
8.379287716541448,-0.1898320019245147,-0.8220359683036804,0.2398519963026046,-79.32749938964844,-224.55999755859372,119.03500366210938
8.399430235090827,-0.187391996383667,-0.9996680021286012,0.4919039905071258,-121.59000396728516,-232.6800079345703,105.29750061035156
8.419572753640207,-0.1483519971370697,-0.9242720007896424,0.342087984085083,-139.26499938964844,-218.1374969482422,92.2074966430664
8.439715272189586,-0.2784039974212646,-0.8693720102310181,0.5182560086250305,-141.5225067138672,-242.8300018310547,82.21500396728516
8.459857790738965,-0.2725479900836944,-0.7563999891281128,0.5319200158119202,-112.2624969482422,-320.5299987792969,40.459999084472656
8.480000309288345,-0.2754760086536407,-1.0160160064697266,0.0717360004782676,-70.13999938964844,-314.92999267578125,29.627500534057617
8.500142827837724,-0.3984519839286804,-1.0882400274276731,-0.1156559959053993,-60.20000076293945,-273.9100036621094,26.61750030517578
8.520285346387103,-0.7795799970626831,-0.891819953918457,-0.3130519986152649,-120.38249969482422,-199.0449981689453,41.43999862670898
8.540427864936483,-0.387472003698349,-0.9833199977874756,-0.3242760002613067,-137.1824951171875,-153.7550048828125,33.61750030517578
8.560570383485862,-0.3957679867744446,-0.9933239817619324,-0.3013399839401245,-96.9499969482422,-91.6999969482422,23.3799991607666
8.580712902035241,-0.4269999861717224,-1.0313879251480105,-0.2654719948768616,-46.47999954223633,-23.012500762939453,18.690000534057617
8.60085542058462,-0.0978439971804618,-1.0877519845962524,-0.1761679947376251,-38.185001373291016,31.780000686645508,3.0975000858306885
8.620997939134,-0.191783994436264,-1.0723799467086792,-0.1742160022258758,-96.19750213623048,79.16999816894531,-15.032500267028809
8.64114045768338,-0.1063839942216873,-1.214143991470337,-0.1854400038719177,-115.20249938964844,115.51750183105467,-40.58250045776367
8.661282976232759,-0.0688079968094825,-0.9813680052757264,-0.3284240067005157,2.2049999237060547,135.06500244140625,-57.85499954223633
8.681425494782138,-0.2466839998960495,-0.9591639637947084,-0.3076840043067932,131.4949951171875,160.02000427246094,-60.79500198364258
8.701568013331517,-0.3313519954681396,-0.7117480039596558,-0.13298000395298,237.68499755859372,167.1074981689453,-47.70500183105469
8.721710531880897,0.1039439961314201,-0.9193919897079468,-0.171775996685028,197.5399932861328,192.8675079345703,-16.047500610351562
8.741853050430276,-0.0412359982728958,-0.4721399843692779,-0.1017479971051216,222.2675018310547,279.5799865722656,12.932499885559082
8.761995568979655,-0.7898280024528503,-0.9357399940490724,0.8400920033454895,179.6024932861328,304.3424987792969,21.122499465942383
8.782138087529034,-0.7363919615745544,-0.9833199977874756,1.4000719785690308,183.9425048828125,110.58250427246094,11.77750015258789
8.802280606078414,0.5453400015830994,-0.884988009929657,0.6944239735603333,309.38250732421875,-80.08000183105469,-26.26749992370605
8.822423124627793,-0.4560360014438629,-0.8669319748878479,0.2249680012464523,21.559999465942383,-6.632500171661377,21.489999771118164
8.842565643177172,-0.1412760019302368,-0.4516440033912658,0.0348920002579689,-58.852500915527344,23.309999465942383,37.02999877929688
8.862708161726552,-0.3764919936656952,-0.6136599779129028,0.9576999545097352,-92.34750366210938,22.924999237060547,94.6050033569336
8.882850680275931,-0.2730360031127929,-1.6587119102478027,0.3040239810943603,-183.1725006103516,-72.78250122070312,103.8625030517578
8.90299319882531,-0.1820240020751953,-0.8205719590187073,0.3137840032577514,107.66000366210938,-107.50250244140624,-84.875
8.92313571737469,-0.1947119981050491,-1.099951982498169,0.3423320055007934,90.84249877929688,-81.14749908447266,-47.79249954223633
8.943278235924069,-0.1115079969167709,-0.948915958404541,0.3982079923152923,207.8300018310547,-75.7925033569336,-41.73749923706055
8.963420754473448,0.0670999959111213,-0.664900004863739,0.4982479810714721,260.364990234375,-34.42250061035156,-2.1524999141693115
8.983563273022828,-0.0156159996986389,-0.8869400024414062,0.3594119846820831,211.0675048828125,28.57749938964844,-25.795000076293945
9.003705791572207,-0.1083360016345977,-1.4308159351348877,0.2937760055065155,151.77749633789062,92.76750183105467,-65.39749908447266
9.023848310121586,0.1566479951143264,-0.8417999744415283,0.2991439998149872,158.25250244140625,124.96749877929688,-98.24500274658205
9.043990828670966,0.0583159998059272,-0.3113439977169037,0.6863719820976257,162.19000244140625,61.845001220703125,-62.29999923706055
9.064133347220345,-0.0378200002014637,-0.7088199853897095,0.6292759776115417,86.02999877929688,55.02000045776367,-66.8499984741211
9.084275865769724,-0.0670999959111213,-1.0499320030212402,0.6148799657821655,65.80000305175781,34.282501220703125,-67.21749877929688
9.104418384319104,-0.0114679997786879,-0.8542439937591553,0.6239079833030701,93.2925033569336,33.040000915527344,-53.07749938964844
9.124560902868483,0.2110600024461746,-0.6600199937820435,0.6056079864501953,80.43000030517578,46.567501068115234,-64.81999969482422
9.144703421417862,0.3864960074424743,-0.8415560126304626,0.5780360102653503,40.14500045776367,58.99250030517578,-102.4800033569336
9.164845939967242,0.3294000029563904,-0.7773839831352234,0.6683160066604614,11.024999618530272,55.87749862670898,-124.56500244140624
9.18498845851662,0.2554679811000824,-0.8454599976539612,0.6602640151977539,14.542500495910645,72.41500091552734,-116.53250122070312
9.205130977066,0.0180559996515512,-0.7439559698104858,0.5272839665412903,9.5024995803833,92.9250030517578,-109.27000427246094
9.22527349561538,0.1634799987077713,-0.7722600102424622,0.561199963092804,-3.307500123977661,75.21500396728516,-101.20249938964844
9.245416014164759,0.5375319719314575,-0.88401198387146,0.4782399833202362,1.3125,66.77999877929688,-122.5875015258789
9.265558532714138,0.5936520099639893,-0.9235399961471558,0.4899519979953766,-5.355000019073486,60.79500198364258,-163.3975067138672
9.285701051263517,0.4165079891681671,-1.13264799118042,0.5546119809150696,-14.699999809265137,61.96749877929688,-186.21749877929688
9.305843569812897,0.6651439666748047,-0.9772199988365172,0.534604012966156,-26.337499618530277,67.44499969482422,-195.5800018310547
9.325986088362276,0.6993039846420288,-1.203652024269104,0.6727079749107361,-21.1924991607666,81.00749969482422,-184.29249572753903
9.346128606911655,0.4165079891681671,-1.3093039989471436,0.7112599611282349,-16.327499389648438,96.96749877929688,-194.82749938964844
9.366271125461035,-0.1893439888954162,-1.3080840110778809,0.6932039856910706,-7.997499942779541,88.77750396728516,-181.63250732421875
9.386413644010414,-0.7115039825439453,-1.1338679790496826,0.7798239588737488,-9.625,47.337501525878906,-125.80750274658205
9.406556162559793,-0.3662439882755279,-0.94159597158432,0.8069080114364624,-11.829999923706056,15.522500038146973,-76.98249816894531
9.426698681109173,-0.473360002040863,-0.9469639658927916,0.7710399627685547,5.722499847412109,5.792500019073486,-30.65999984741211
9.446841199658552,0.2671799957752228,-0.9598959684371948,0.859611988067627,19.512500762939453,20.247499465942383,-53.182498931884766
9.466983718207931,0.1356640011072158,-0.8610759973526001,0.6334239840507507,-16.239999771118164,36.470001220703125,-185.13250732421875
9.48712623675731,-0.0334279984235763,-0.998203992843628,0.9269559979438782,-78.52249908447266,-28.875,-203.9275054931641
9.50726875530669,-0.9972279667854308,-0.9877119660377502,1.148263931274414,-24.762500762939453,-113.08499908447266,-92.36499786376952
9.52741127385607,-0.8827919960021973,-0.8022719621658325,1.2173160314559937,-15.627500534057615,-92.50499725341795,1.7675000429153442
9.547553792405449,-0.9271999597549438,-0.761523962020874,1.1370400190353394,19.82749938964844,-67.41000366210938,57.084999084472656
9.567696310954828,-1.0806759595870972,-0.7712839841842651,1.0357799530029297,46.88249969482422,-95.6374969482422,107.8000030517578
9.587838829504207,-1.0638400316238403,-0.4855599999427795,0.938423991203308,73.22000122070312,-186.375,135.58999633789062
9.607981348053587,-0.7978799939155579,-0.4069919884204864,0.8788880109786987,70.71749877929688,-299.3550109863281,140.05250549316406
9.628123866602966,-0.5619319677352905,-0.3655119836330414,0.8820599913597107,37.25749969482422,-364.1400146484375,140.91000366210938
9.648266385152345,-0.3908880054950714,-0.3603879809379577,0.9472079873085022,7.857500076293945,-361.8299865722656,130.47999572753906
9.668408903701724,-0.1510359942913055,-0.4767760038375854,0.9674599766731262,8.557499885559082,-312.0425109863281,123.25250244140624
9.688551422251104,-0.1088239997625351,-0.4513999819755554,0.84716796875,36.540000915527344,-258.5274963378906,118.79000091552734
9.708693940800483,-0.0285479985177516,-0.5624200105667114,0.7388319969177246,82.37249755859375,-209.9125061035156,88.30500030517578
9.728836459349862,0.0234239995479583,-0.522159993648529,0.6112200021743774,130.6374969482422,-164.44749450683594,62.317501068115234
9.748978977899242,0.0265959985554218,-0.5677880048751831,0.4435919821262359,132.1074981689453,-144.91749572753906,57.3650016784668
9.769121496448621,0.0688079968094825,-0.628055989742279,0.3579480051994324,116.12999725341795,-158.375,63.997501373291016
9.789264014998,0.2540040016174316,-0.7349280118942261,0.3206160068511963,102.07749938964844,-189.12249755859372,78.29499816894531
9.80940653354738,0.639523983001709,-0.9298839569091796,0.0146399997174739,96.3550033569336,-214.09500122070312,76.77249908447266
9.829549052096759,0.949404001235962,-0.9454999566078186,-0.1564040035009384,58.08250045776367,-231.82249450683597,37.60750198364258
9.849691570646138,0.9049959778785706,-0.9745360016822816,-0.3603879809379577,-32.025001525878906,-239.6800079345703,-15.609999656677246
9.869834089195518,0.9264679551124572,-0.9496479630470276,-0.2808440029621124,-110.65250396728516,-252.3325042724609,-30.13500022888184
9.889976607744897,1.0296800136566162,-1.108247995376587,0.130295991897583,-145.96749877929688,-225.75,-36.68000030517578
9.910119126294276,1.1758359670639038,-1.2419599294662476,0.4096759855747223,-97.35250091552734,-125.7375030517578,-61.19750213623047
9.930261644843656,0.9762439727783204,-1.3851879835128784,0.2239919900894165,35.36750030517578,-3.920000076293945,-100.46749877929688
9.950404163393035,0.6978399753570557,-1.0855560302734375,-0.157379999756813,150.88499450683594,45.692501068115234,-108.74500274658205
9.970546681942414,0.6753919720649719,-0.6846640110015869,-0.0895479992032051,106.2249984741211,-8.645000457763672,-69.17749786376953
9.990689200491794,0.7893399596214294,-0.6278119683265686,0.0531919971108436,35.227500915527344,-76.96500396728516,-68.09249877929688
10.010831719041173,1.0765279531478882,-0.5672999620437622,-0.0348920002579689,33.022499084472656,-78.81999969482422,-117.44249725341795
10.030974237590552,0.9393999576568604,-0.5297240018844604,-0.1217559948563575,-10.255000114440918,-35.630001068115234,-135.97500610351562
10.051116756139931,0.9218319654464722,-0.6268360018730164,-0.1949559897184372,-53.130001068115234,-31.587499618530277,-86.87000274658203
10.07125927468931,0.8466799855232239,-0.4787279963493347,-0.2610799968242645,-45.290000915527344,-51.432498931884766,-64.19000244140625
10.09140179323869,1.1148359775543213,-0.423583984375,-0.1451800018548965,-49.3849983215332,-17.045000076293945,-113.5749969482422
10.11154431178807,0.9376919865608216,-0.5568079948425293,0.1280999928712844,34.772499084472656,48.125,-37.69499969482422
10.131686830337449,0.7298039793968201,-0.4472520053386688,0.1837320029735565,50.505001068115234,64.59249877929688,-20.177499771118164
10.151829348886828,0.8037359714508057,-0.4701879918575287,0.1559159904718399,72.78250122070312,51.55500030517578,-39.165000915527344
10.171971867436207,0.7939760088920593,-0.2676680088043213,0.0375759974122047,69.4574966430664,45.744998931884766,-40.96749877929688
10.192114385985587,0.8696159720420837,-0.4858039915561676,0.2342399954795837,14.47249984741211,23.030000686645508,-49.03499984741211
10.212256904534966,1.0213840007781982,-0.6146360039710999,0.2469279915094375,-26.127500534057617,28.21000099182129,-38.92000198364258
10.232399423084345,1.0872639417648315,-0.5692520141601562,0.201787993311882,-10.482500076293944,75.87999725341797,-29.45249938964844
10.252541941633725,1.0357799530029297,-0.4470079839229584,0.1132159978151321,11.00749969482422,119.9800033569336,-40.79249954223633
10.272684460183104,0.9364719986915588,-0.4801920056343078,0.0934519991278648,7.105000019073486,100.57250213623048,-51.25749969482422
10.292826978732483,0.9813680052757264,-0.4511559903621673,0.1371279954910278,6.877500057220459,55.650001525878906,-46.72499847412109
10.312969497281863,1.0072319507598877,-0.3938159942626953,0.220331996679306,2.4674999713897705,40.09249877929688,-48.42250061035156
10.333112015831242,0.981123983860016,-0.3494080007076263,0.2181359976530075,-10.53499984741211,48.66749954223633,-61.18000030517578
10.353254534380621,1.013819932937622,-0.3184199929237366,0.0824719965457916,-28.59499931335449,40.75749969482422,-71.69750213623047
10.37339705293,0.9886879920959472,-0.3725879788398742,-0.0346480011940002,-48.9474983215332,17.657499313354492,-81.30500030517578
10.39353957147938,1.035048007965088,-0.2876760065555572,0.0788119956851005,-58.08250045776367,-12.862500190734863,-81.69000244140625
10.41368209002876,0.9925919771194458,-0.2622999846935272,0.1956879943609237,-65.60749816894531,-15.260000228881836,-78.8550033569336
10.433824608578139,0.9557479619979858,-0.2339959889650344,0.2305800020694732,-61.95000076293945,3.5174999237060547,-78.97750091552734
10.453967127127518,0.9354959726333618,-0.1710439920425415,0.1134599968791008,-64.24250030517578,16.047500610351562,-77.05249786376953
10.474109645676897,0.9206119775772096,-0.1686040014028549,0.1190719977021217,-83.4574966430664,-10.447500228881836,-81.74250030517578
10.494252164226276,0.7876319885253906,-0.1944679915904998,0.1737279891967773,-73.95500183105469,-44.32749938964844,-94.11499786376952
10.514394682775656,0.8505839705467224,-0.1856839954853058,0.3508719801902771,-64.87249755859375,-69.6500015258789,-85.97750091552734
10.534537201325035,0.782263994216919,-0.167383998632431,0.4004040062427521,-63.29750061035156,-66.43000030517578,-48.29999923706055
10.554679719874414,0.8369199633598328,-0.1966639906167984,0.4018679857254028,-63.61249923706055,-53.39250183105469,-1.2949999570846558
10.574822238423794,0.8500959873199463,-0.2105719894170761,0.4701879918575287,-72.69499969482422,-33.21500015258789,38.290000915527344
10.594964756973173,0.8027600049972534,-0.2337519973516464,0.4492039978504181,-82.87999725341797,-8.71500015258789,49.27999877929688
10.615107275522552,0.765671968460083,-0.2481479942798614,0.4626239836215973,-63.209999084472656,22.5575008392334,26.950000762939453
10.635249794071932,0.6641680002212524,-0.1766559928655624,0.3738079965114593,-43.59249877929688,21.612499237060547,-7.472499847412109
10.655392312621311,0.6200039982795715,-0.2998760044574737,0.4589639902114868,-56.42000198364258,-60.70750045776367,-14.105000495910645
10.67553483117069,0.5755959749221802,-0.4304159879684448,0.619271993637085,-42.78749847412109,-155.88999938964844,11.217499732971191
10.69567734972007,0.7878760099411011,-0.2625440061092376,0.7424919605255127,-12.074999809265137,-189.99749755859372,39.95249938964844
10.715819868269449,0.5895040035247803,-0.0956479981541633,0.6348879933357239,6.335000038146973,-109.58499908447266,51.415000915527344
10.735962386818828,0.7197999954223633,-0.2213079929351806,0.5853559970855713,13.5625,-102.21749877929688,35.087501525878906
10.756104905368208,0.6980839967727661,-0.3274479806423187,0.5153279900550842,37.2400016784668,-105.875,48.755001068115234
10.776247423917587,0.7563999891281128,-0.3372080028057098,0.3713679909706116,86.9574966430664,-104.9124984741211,51.65999984741211
10.796389942466966,0.8435080051422119,-0.3525799810886383,0.2949959933757782,129.2899932861328,-102.7249984741211,54.63500213623047
10.816532461016346,0.9250040054321288,-0.3313519954681396,0.1349319964647293,128.8350067138672,-90.4574966430664,60.532501220703125
10.836674979565725,0.9149999618530272,-0.4274879992008209,0.0480679981410503,120.38249969482422,-86.59000396728516,39.00749969482422
10.856817498115104,1.034071922302246,-0.3916199803352356,0.0873520001769065,132.3874969482422,-90.7375030517578,12.65250015258789
10.876960016664484,1.0084519386291504,-0.3850319981575012,-0.0458719991147518,116.14749908447266,-66.91999816894531,2.572499990463257
10.897102535213863,0.9686799645423888,-0.4262679815292358,-0.2725479900836944,82.38999938964844,-50.994998931884766,6.195000171661377
10.917245053763242,0.9874680042266846,-0.4579879939556122,-0.3479439914226532,52.255001068115234,-63.47249984741211,23.64249992370605
10.937387572312621,1.1114200353622437,-0.6202479600906372,-0.2154520004987716,49.77000045776367,-73.81500244140625,33.11000061035156
10.957530090862,1.2563560009002686,-0.6273239850997925,-0.1671399921178817,103.66999816894533,-31.5,32.095001220703125
10.97767260941138,1.1568039655685425,-0.3542879819869995,-0.1525000035762787,131.77499389648438,50.22499847412109,26.70499992370605
10.99781512796076,0.941107988357544,-0.3372080028057098,-0.4021120071411133,79.41500091552734,130.49749755859375,-2.0299999713897705
11.017957646510139,0.9584319591522216,-0.4623799920082092,-0.3755159974098205,32.44499969482422,186.8300018310547,-39.84749984741211
11.038100165059518,0.8510719537734985,-0.9242720007896424,-0.8322839736938477,-64.2249984741211,230.3874969482422,-43.505001068115234
11.058242683608897,0.7585960030555725,-0.5943840146064758,-0.5768159627914429,-41.334999084472656,187.4949951171875,-37.747501373291016
11.078385202158277,0.871567964553833,-0.5287479758262634,-0.3054879903793335,-34.439998626708984,132.40499877929688,-25.934999465942383
11.098527720707656,0.7934879660606384,-0.2479040026664734,0.0914999991655349,-65.90499877929688,71.26000213623047,-13.5625
11.118670239257035,0.7756760120391846,-0.4570119976997375,0.1883679926395416,-107.8874969482422,-3.447499990463257,-30.76499938964844
11.138812757806415,1.1355760097503662,-0.7071120142936707,0.3545320034027099,-96.40750122070312,-18.375,-8.417500495910645
11.158955276355794,1.0457839965820312,-0.4282200038433075,0.2139879912137985,-89.23249816894531,10.97249984741211,63.80500030517578
11.179097794905173,1.0992200374603271,-0.4484719932079315,0.0505079999566078,-105.875,37.834999084472656,100.4499969482422
11.199240313454553,1.0491999387741089,-0.4931239783763885,-0.0592919997870922,-89.82749938964844,34.58000183105469,106.99500274658205
11.219382832003932,1.0831159353256226,-0.6370840072631836,0.1000399962067604,-58.32749938964844,58.06499862670898,93.15250396728516
11.239525350553311,1.1143479347229004,-0.5592479705810547,0.0844239965081214,-13.720000267028809,111.10749816894533,78.75
11.25966786910269,1.0125999450683594,-0.5043479800224304,0.0224479995667934,-15.470000267028809,168.82249450683594,80.63999938964844
11.27981038765207,0.9113399982452391,-0.5633959770202637,0.1012599989771843,-24.5,204.01499938964844,83.77249908447266
11.29995290620145,0.6583119630813599,-0.6121959686279297,0.1083360016345977,-22.96000099182129,184.5375061035156,107.52000427246094
11.320095424750829,0.7481039762496948,-0.9772199988365172,0.5167919993400574,20.107500076293945,26.6875,207.3050079345703
11.340237943300208,0.8588799834251404,-0.9159759879112244,0.4309040009975433,138.4250030517578,7.787499904632568,212.1175079345703
11.360380461849587,0.4911719858646393,-0.4416399896144867,0.2071560025215149,146.8249969482422,39.04249954223633,213.8500061035156
11.380522980398966,0.4994679987430572,-0.5480239987373352,0.1808039993047714,125.3874969482422,76.33499908447266,128.24000549316406
11.400665498948346,0.1017479971051216,-0.289139986038208,0.0934519991278648,96.47750091552734,46.20000076293945,44.97499847412109
11.420808017497725,0.3101239800453186,-0.6136599779129028,0.2481479942798614,-70.0,-25.112499237060547,-25.287500381469727
11.440950536047104,0.7202879786491394,-1.199504017829895,0.4457879960536957,-196.0175018310547,-84.20999908447266,-25.655000686645508
11.461093054596484,0.851315975189209,-1.1121519804000854,0.3494080007076263,-167.3699951171875,-83.72000122070312,-20.895000457763672
11.481235573145863,0.8166679739952087,-0.9008479714393616,0.2047159969806671,-127.78500366210938,-67.35749816894531,-56.36750030517578
11.501378091695242,0.8225240111351013,-0.8600999712944031,0.1908079981803894,-118.17749786376952,-83.0199966430664,-75.00499725341797
11.521520610244622,0.6885679960250854,-0.713699996471405,-0.056607998907566,-72.02999877929688,-89.72250366210938,-88.49749755859375
11.541663128794001,0.6827119588851929,-0.742247998714447,0.0117119997739791,-73.76249694824219,-106.0500030517578,-27.57999992370605
11.56180564734338,0.6951559782028198,-0.6875919699668884,-0.0922319963574409,-47.810001373291016,-119.89250183105467,-21.38500022888184
11.58194816589276,0.6897879838943481,-0.5863319635391235,-0.249123990535736,-41.73749923706055,-140.91000366210938,-9.012499809265137
11.602090684442139,0.9335439801216124,-0.5777919888496399,-0.2586399912834167,-42.71749877929688,-148.0850067138672,-9.7475004196167
11.622233202991518,0.7705519795417786,-0.5760840177536011,-0.2479040026664734,-52.48250198364258,-107.8874969482422,-13.300000190734863
11.642375721540898,0.7327319979667664,-0.4101639986038208,-0.6824679970741272,-77.12249755859375,-59.92000198364258,-7.472499847412109
11.662518240090277,0.7929999828338623,-0.5846239924430847,-0.4023559987545013,-139.84249877929688,17.202499389648438,-13.93000030517578
11.682660758639656,0.7134559750556946,-0.602679967880249,-0.603655993938446,-115.51750183105467,-59.48250198364258,-17.27250099182129
11.702803277189036,0.8161799907684326,-0.6456239819526672,-0.3906439840793609,-73.86750030517578,-84.7874984741211,-5.442500114440918
11.722945795738415,0.8225240111351013,-0.757375955581665,-0.1700679957866668,-30.57250022888184,-49.29750061035156,-5.267499923706055
11.743088314287794,0.6768559813499451,-0.8147159814834595,-0.0143959997221827,-9.65999984741211,6.125,53.21749877929688
11.763230832837174,0.513375997543335,-0.9225639700889589,-0.2613239884376526,-22.854999542236328,63.525001525878906,153.07249450683594
11.783373351386553,0.5224040150642395,-0.8178879618644714,-0.1276119947433471,-22.434999465942383,75.12750244140625,243.4425048828125
11.803515869935932,0.3738079965114593,-0.500931978225708,-0.0121999997645616,21.524999618530277,71.97750091552734,249.2350006103516
11.823658388485311,0.2369239926338195,-0.5265519618988037,-0.0861319974064827,29.32999992370605,45.8849983215332,191.4499969482422
11.84380090703469,0.0819839984178543,-0.4848279953002929,-0.1476199924945831,3.7799999713897705,-32.130001068115234,144.05999755859375
11.86394342558407,0.1483519971370697,-0.4865359961986542,-0.0961359962821006,-79.74749755859375,-132.45750427246094,127.75
11.88408594413345,0.3401359915733337,-0.7590839862823486,0.1146799996495246,-139.7725067138672,-189.55999755859372,116.60250091552734
11.904228462682829,0.244731992483139,-0.8776679635047913,-0.0490439981222152,-139.40499877929688,-161.0,115.9375
11.924370981232208,-0.0514839999377727,-1.0025960206985474,-0.228872001171112,-101.9375,-132.24749755859375,60.584999084472656
11.944513499781587,0.0187879987061023,-1.089460015296936,-0.2825520038604736,-96.56500244140624,-157.90249633789062,56.42000198364258
11.964656018330967,0.1986159980297088,-1.2412279844284058,-0.2422920018434524,-102.53250122070312,-138.0050048828125,88.98750305175781
11.984798536880346,0.1097999960184097,-1.2983239889144895,-0.4711639881134033,-48.125,-52.255001068115234,127.88999938964844
12.004941055429725,0.1234639957547187,-1.1968200206756592,-0.6502599716186523,2.870000123977661,19.61750030517578,112.875
12.025083573979105,0.0134199997410178,-1.3573719263076782,-0.6463559865951538,0.4900000095367431,60.497501373291016,38.09749984741211
12.045226092528484,0.0026839999482035,-1.3695719242095947,-0.6239079833030701,3.325000047683716,103.44249725341795,-19.28499984741211
12.065368611077863,0.0287919994443655,-1.2024319171905518,-0.6136599779129028,18.795000076293945,157.60499572753906,-47.12749862670898
12.085511129627243,0.1032119989395141,-1.1472879648208618,-0.4887319803237915,8.802499771118164,163.58999633789062,-34.404998779296875
12.105653648176622,0.1590880006551742,-1.012112021446228,-0.5638839602470398,8.960000038146973,167.5800018310547,-11.585000038146973
12.125796166726001,0.114436000585556,-0.8957239985466003,-0.6922279596328735,17.482500076293945,166.37249755859375,17.954999923706055
12.14593868527538,0.1154119968414306,-0.5477799773216248,-0.7166280150413513,8.802499771118164,145.0050048828125,74.60250091552734
12.16608120382476,0.062219999730587,-0.5780360102653503,-0.5285040140151978,-20.09000015258789,101.90250396728516,117.40750122070312
12.18622372237414,0.1771439909934997,-0.7908039689064026,-0.2420479953289032,15.3125,67.35749816894531,143.60499572753906
12.206366240923519,0.210327997803688,-0.9293959736824036,-0.403575986623764,97.93000030517578,114.06500244140624,156.66000366210938
12.226508759472898,0.330375999212265,-0.7307800054550171,-0.3850319981575012,142.4499969482422,182.3500061035156,154.6475067138672
12.246651278022277,0.4030880033969879,-0.732975959777832,-0.3786879777908325,137.27000427246094,192.8675079345703,105.50749969482422
12.266793796571656,0.1537199914455413,-1.0057679414749146,-0.3298879861831665,128.71249389648438,200.97000122070312,20.614999771118164
12.286936315121036,-0.3764919936656952,-1.2185360193252563,-0.5843799710273743,69.52750396728516,210.8574981689453,-17.552499771118164
12.307078833670415,-0.4338319897651672,-0.9852719902992249,-0.4377360045909881,-44.6775016784668,108.44750213623048,1.3300000429153442
12.327221352219794,-0.2142319977283477,-1.1748600006103516,-0.147376000881195,-177.27499389648438,6.369999885559082,-0.5774999856948853
12.347363870769174,0.0558759979903698,-1.2575759887695312,0.2622999846935272,-141.34750366210938,14.227499961853027,-8.994999885559082
12.367506389318553,0.0878399983048439,-1.0767719745635986,-0.0146399997174739,31.86750030517578,81.8125,-7.454999923706055
12.387648907867932,0.2513200044631958,-0.6497719883918762,-0.3774679899215698,156.5550079345703,153.1074981689453,3.009999990463257
12.407791426417312,0.0434319972991943,-0.7664039731025696,-0.4052839875221252,112.875,184.1699981689453,-20.177499771118164
12.427933944966691,0.1210239976644516,-0.4775079786777496,-0.2088640034198761,105.24500274658205,170.22250366210938,-53.74250030517578
12.44807646351607,-0.0170799996703863,-0.985759973526001,-0.3935720026493072,49.962501525878906,227.18499755859372,-123.0425033569336
12.46821898206545,-0.0746639966964721,-0.8486319780349731,-0.3306199908256531,60.34000015258789,259.9100036621094,-109.00749969482422
12.488361500614829,-0.1559159904718399,-0.561199963092804,-0.3045119941234588,54.21500015258789,270.6199951171875,-70.41999816894531
12.508504019164208,-0.1781200021505355,-0.4079679846763611,-0.1925159990787506,-0.2975000143051147,255.5525054931641,-47.18000030517578
12.528646537713588,0.0893040001392364,-0.7825079560279846,0.0322079993784427,-2.2049999237060547,262.86749267578125,-129.22000122070312
12.548789056262967,0.1603080034255981,-1.2756320238113403,-0.1654319912195205,60.95249938964844,256.375,-137.1125030517578
12.568931574812346,-0.0692960023880004,-1.0670119524002075,-0.3540439903736114,126.13999938964844,295.1199951171875,-99.76750183105467
12.589074093361726,0.0265959985554218,-1.0418800115585327,-0.3374519944190979,58.45000076293945,287.2275085449219,-93.78250122070312
12.609216611911105,-0.0424560010433197,-0.9267119765281676,-0.4757999777793884,-79.06500244140625,231.6475067138672,-70.9625015258789
12.629359130460484,0.038307998329401,-0.9694119691848756,-0.3752720057964325,-117.3375015258789,126.55999755859376,-55.5625
12.649501649009864,0.2066679894924163,-0.9740479588508606,-0.4394440054893493,-56.525001525878906,64.05000305175781,-57.067501068115234
12.669644167559243,0.1951999962329864,-1.3685959577560425,0.2342399954795837,-30.8700008392334,38.86750030517578,-61.54750061035156
12.689786686108622,0.4504239857196808,-2.661795854568481,-0.8710799813270569,-80.77999877929688,36.13750076293945,152.2324981689453
12.709929204658001,0.2915799915790558,-0.6880800127983093,1.50547993183136,177.69500732421875,6.177500247955322,341.07501220703125
12.73007172320738,0.2527839839458465,-1.3017399311065674,0.823743999004364,153.08999633789062,95.23500061035156,269.1849975585937
12.75021424175676,0.2278959900140762,-1.1463119983673096,0.4667719900608063,427.6124877929688,87.51750183105469,284.44500732421875
12.77035676030614,0.2901159822940826,-1.0374879837036133,0.0087839998304843,565.7224731445312,55.98250198364258,310.99249267578125
12.790499278855519,0.2596159875392914,-0.1739719957113266,0.0736880004405975,560.0349731445312,178.00999450683594,344.364990234375
12.810641797404898,0.2569319903850555,-0.4174839854240417,0.8552199602127075,426.2999877929688,192.97250366210935,402.1499938964844
12.830784315954277,-0.0087839998304843,-0.1561599969863891,0.509227991104126,388.8500061035156,377.5450134277344,426.5450134277344
12.850926834503657,-0.6958879828453064,0.7937319874763489,1.248304009437561,238.22750854492188,526.0499877929688,418.6875
12.871069353053036,-1.355907917022705,-0.1793399900197982,-0.0453839972615242,31.9375,562.239990234375,378.3324890136719
12.891211871602415,-1.871967911720276,0.5353360176086426,0.5355799794197083,310.25750732421875,470.0150146484375,320.6524963378906
12.911354390151795,-1.2592840194702148,0.1371279954910278,0.5687639713287354,222.4949951171875,257.0224914550781,245.8050079345703
12.931496908701174,-1.0816519260406494,-0.0895479992032051,0.6849079728126526,132.0550079345703,291.375,123.83000183105467
12.951639427250553,-1.113371968269348,0.0846679955720901,0.4804359972476959,91.66500091552734,353.6925048828125,-17.552499771118164
12.971781945799933,-1.2200000286102295,0.0187879987061023,0.2561999857425689,36.45249938964844,332.1849975585937,-113.2249984741211
12.991924464349312,-1.125815987586975,-0.2740119993686676,0.0248879995197057,83.42250061035156,197.9949951171875,-162.9600067138672
13.012066982898691,-1.2026759386062622,0.4870239794254303,0.2474159896373748,143.7624969482422,75.7925033569336,-165.21749877929688
13.03220950144807,-1.2626999616622925,0.0170799996703863,0.1708000004291534,5.127500057220459,-77.875,-138.6699981689453
13.05235201999745,-1.1799839735031128,-0.0912560001015663,0.1617719978094101,8.295000076293945,-197.69749450683597,-98.59500122070312
13.07249453854683,-1.0487120151519775,-0.0985759943723678,0.1600639969110489,79.48500061035156,-247.9750061035156,-54.72249984741211
13.092637057096209,-1.067988038063049,-0.0719799995422363,0.2142319977283477,151.65499877929688,-236.91500854492188,-10.710000038146973
13.112779575645588,-1.1136159896850586,0.1610399931669235,0.2803559899330139,199.5874938964844,-241.3600006103516,29.01499938964844
13.132922094194967,-0.6719759702682495,0.3111000061035156,0.3847880065441131,144.04249572753906,-250.96749877929688,24.674999237060547
13.153064612744346,-0.8381400108337402,0.2369239926338195,0.4879999756813049,13.947500228881836,-224.12249755859372,-2.257499933242798
13.173207131293726,-0.6248840093612671,-0.0487999990582466,0.6402559876441956,-86.69499969482422,-214.04249572753903,-15.645000457763672
13.193349649843105,-0.6317160129547119,-0.3574599921703338,0.7078439593315125,-46.67250061035156,-194.3025054931641,-10.640000343322754
13.213492168392484,-0.5089839696884155,0.0070759998634457,0.6351320147514343,78.80249786376953,-146.8074951171875,-6.440000057220459
13.233634686941864,-0.6683160066604614,0.2727919816970825,0.628055989742279,37.72999954223633,-109.05999755859376,-2.117500066757202
13.253777205491243,-0.4028439819812774,0.0417240001261234,0.6539199948310852,-53.970001220703125,-63.75249862670898,0.3675000071525574
13.273919724040622,-0.5541239976882935,0.0178119987249374,0.6222000122070312,-69.79000091552734,25.51499938964844,8.032500267028809
13.294062242590002,-0.6204919815063477,0.0783239975571632,0.7239480018615723,-84.4375,92.54000091552734,16.747499465942383
13.314204761139381,-0.6324479579925537,-0.210327997803688,0.7088199853897095,-93.1875,126.82250213623048,31.587499618530277
13.33434727968876,-0.8984079957008362,-0.13468798995018,0.6712439656257629,4.235000133514404,137.02499389648438,41.317501068115234
13.35448979823814,-0.738099992275238,0.1598199903964996,0.7727479934692383,12.232500076293944,100.0124969482422,27.982500076293945
13.374632316787519,-0.8188639879226685,-0.1168759986758232,0.6041439771652222,-53.27000045776367,61.459999084472656,22.61000061035156
13.394774835336898,-0.7893399596214294,-0.0480679981410503,0.6156119704246521,-18.725000381469727,62.84249877929688,14.4375
13.414917353886278,-0.8132519721984863,-0.0041479999199509,0.6104879975318909,-9.380000114440918,64.76750183105469,6.090000152587891
13.435059872435657,-0.8537560105323792,-0.0092719998210668,0.5831599831581116,-13.755000114440918,59.587501525878906,-0.0525000020861625
13.455202390985036,-0.8271600008010864,-0.0378200002014637,0.5992639660835266,-10.832500457763672,47.372501373291016,1.5225000381469729
13.475344909534416,-0.8762039542198181,-0.0253759995102882,0.5873079895973206,-3.920000076293945,31.63999938964844,2.712500095367432
13.495487428083795,-0.8688839673995972,-0.0175679996609687,0.5794999599456787,2.0999999046325684,9.730000495910645,4.637499809265137
13.515629946633174,-0.8476560115814209,-0.0178119987249374,0.574131965637207,8.574999809265137,-10.395000457763672,7.385000228881836
13.535772465182554,-0.8339920043945312,-0.0148839997127652,0.5680319666862488,13.440000534057615,-20.982500076293945,9.99250030517578
13.555914983731933,-0.8022719621658325,0.009515999816358,0.5685200095176697,9.800000190734863,-20.649999618530277,7.525000095367432
13.576057502281312,-0.815447986125946,0.0090279998257756,0.5682759881019592,4.445000171661377,-12.3725004196167,1.9424999952316284
13.596200020830691,-0.8327719569206238,-0.0112239997833967,0.5853559970855713,2.1875,-7.945000171661377,-2.852499961853028
13.61634253938007,-0.8364319801330566,-0.0004879999905824,0.6112200021743774,1.0674999952316284,-16.764999389648438,-3.184999942779541
13.63648505792945,-0.8527799844741821,0.0048799999058246,0.610975980758667,0.9800000190734864,-35.647499084472656,-1.277500033378601
13.65662757647883,-0.8149600028991699,0.0165919996798038,0.6073160171508789,-0.9449999928474426,-52.04500198364258,-1.4175000190734863
13.676770095028209,-0.7603039741516113,0.0002439999952912,0.6041439771652222,-9.082500457763672,-53.025001525878906,-3.184999942779541
13.696912613577588,-0.7307800054550171,-0.0385520011186599,0.589747965335846,-10.9375,-36.505001068115234,-3.7274999618530273
13.717055132126967,-0.7190679907798767,-0.0092719998210668,0.589747965335846,0.9975000023841858,-8.4350004196167,-2.712500095367432
13.737197650676347,-0.7834839820861816,-0.0165919996798038,0.619271993637085,-1.5750000476837158,37.25749969482422,-1.680000066757202
13.757340169225726,-0.8056879639625549,-0.018300000578165,0.6268360018730164,0.0350000001490116,37.834999084472656,-1.784999966621399
13.777482687775105,-0.8220359683036804,-0.0043919999152421,0.616100013256073,2.5199999809265137,29.08500099182129,-2.065000057220459
13.797625206324485,-0.8161799907684326,-0.0090279998257756,0.6073160171508789,2.2049999237060547,19.19750022888184,-1.715000033378601
13.817767724873864,-0.8159359693527222,-0.0114679997786879,0.59853196144104,2.6600000858306885,12.28499984741211,-1.4350000619888306
13.837910243423243,-0.8139839768409729,-0.010491999797523,0.5934079885482788,1.784999966621399,8.3125,-1.4350000619888306
13.858052761972623,-0.8156920075416565,-0.0041479999199509,0.5924319624900818,0.7350000143051147,5.880000114440918,-1.1725000143051147
13.878195280522002,-0.8220359683036804,-0.0065879998728632,0.5953599810600281,-0.2450000047683715,2.9574999809265137,-0.962499976158142
13.898337799071381,-0.8159359693527222,-0.0153719997033476,0.5978000164031982,0.0175000000745058,-2.5374999046325684,0.0350000001490116
13.91848031762076,-0.8110559582710266,-0.0087839998304843,0.5929200053215027,1.2599999904632568,-7.139999866485596,0.9449999928474426
13.93862283617014,-0.8069080114364624,-0.0078079998493194,0.5880399942398071,0.3675000071525574,-7.682499885559082,0.2450000047683715
13.95876535471952,-0.8010519742965698,-0.0146399997174739,0.5919439792633057,-0.3849999904632568,-5.6875,-0.3675000071525574
13.978907873268898,-0.8112999796867371,-0.0070759998634457,0.5990200042724609,0.9800000190734864,-4.322500228881836,0.0874999985098838
13.999050391818278,-0.8108119964599609,-0.003171999938786,0.6090239882469177,0.1749999970197677,-12.967499732971191,-0.0525000020861625
14.019192910367657,-0.8003199696540833,-0.0090279998257756,0.6058520078659058,-1.5750000476837158,-17.517499923706055,0.1924999952316284
14.039335428917036,-0.7788479924201965,-0.0156159996986389,0.5975559949874878,-0.8575000166893005,-16.747499465942383,1.1725000143051147
14.059477947466416,-0.7722600102424622,-0.0085399998351931,0.5921880006790161,1.1725000143051147,-6.947500228881836,1.4175000190734863
14.079620466015795,-0.7798239588737488,-0.0119559997692704,0.5963360071182251,0.1574999988079071,6.457499980926514,-0.0175000000745058
14.099762984565174,-0.7939760088920593,-0.0107359997928142,0.6063399910926819,-0.8575000166893005,15.522500038146973,-1.75
14.119905503114554,-0.8103240132331848,-0.0085399998351931,0.6117079854011536,-0.7875000238418579,16.047500610351562,-2.0999999046325684
14.140048021663933,-0.8117879629135132,-0.0141519997268915,0.6100000143051147,-0.2800000011920929,10.09749984741211,-0.8400000333786011
14.160190540213312,-0.8071519732475281,-0.0073199998587369,0.6041439771652222,0.9100000262260436,4.287499904632568,0.1225000023841857
14.180333058762692,-0.8022719621658325,-0.0107359997928142,0.5965799689292908,0.4375,2.327500104904175,0.0175000000745058
14.200475577312071,-0.8005639910697937,-0.013663999736309,0.5936520099639893,0.1225000023841857,3.902499914169312,-0.2800000011920929
14.22061809586145,-0.8051999807357788,-0.0100039998069405,0.5951159596443176,0.2975000143051147,6.159999847412109,-0.4900000095367431
14.24076061441083,-0.8127639889717102,-0.0119559997692704,0.6002399921417236,0.2450000047683715,6.159999847412109,-0.5774999856948853
14.260903132960209,-0.8198399543762207,-0.0100039998069405,0.6046319603919983,0.3849999904632568,1.784999966621399,-0.4900000095367431
14.281045651509588,-0.8108119964599609,-0.0100039998069405,0.5997520089149475,0.2100000083446502,-4.707499980926514,-0.1050000041723251
14.301188170058968,-0.801539957523346,-0.013663999736309,0.5943840146064758,0.5074999928474426,-7.087500095367432,0.4375
14.321330688608347,-0.8003199696540833,-0.0073199998587369,0.5975559949874878,0.2100000083446502,-2.362499952316284,-0.1924999952316284
14.341473207157726,-0.8056879639625549,-0.0143959997221827,0.6012159585952759,-0.1924999952316284,-1.190000057220459,-0.3499999940395355
14.361615725707106,-0.8083719611167908,-0.0090279998257756,0.6060959696769714,0.5074999928474426,-2.9049999713897705,-0.0874999985098838
14.381758244256485,-0.8032479882240295,-0.0119559997692704,0.6046319603919983,0.3499999940395355,-5.792500019073486,0.332500010728836
14.401900762805864,-0.7969039678573608,-0.0100039998069405,0.6012159585952759,0.7175000309944153,-6.84250020980835,0.4025000035762787
14.422043281355243,-0.7864120006561279,-0.0100039998069405,0.5943840146064758,0.3675000071525574,-3.815000057220459,0.1574999988079071
14.442185799904623,-0.791047990322113,-0.0117119997739791,0.5960919857025146,0.1225000023841857,3.587500095367432,-0.2450000047683715
14.462328318454002,-0.8005639910697937,-0.010491999797523,0.6029239892959595,-0.1225000023841857,8.487500190734863,-0.699999988079071
14.482470837003381,-0.8091039657592773,-0.0100039998069405,0.6060959696769714,-0.1400000005960464,8.067500114440918,-0.8924999833106995
14.50261335555276,-0.8098359704017639,-0.0107359997928142,0.6046319603919983,-0.0175000000745058,4.567500114440918,-0.5774999856948853
14.52275587410214,-0.8049559593200684,-0.0097599998116493,0.6017040014266968,0.4550000131130218,1.0850000381469729,-0.0350000001490116
14.54289839265152,-0.8005639910697937,-0.0124439997598528,0.5965799689292908,0.2975000143051147,0.5600000023841858,0.0525000020861625
14.563040911200899,-0.8020280003547668,-0.0124439997598528,0.594871997833252,0.0350000001490116,2.3975000381469727,-0.4375
14.583183429750278,-0.8049559593200684,-0.009515999816358,0.5975559949874878,0.0350000001490116,4.059999942779541,-0.6474999785423279
14.603325948299657,-0.8110559582710266,-0.0097599998116493,0.6024360060691833,0.1050000041723251,3.3949999809265137,-0.4025000035762787
14.623468466849037,-0.8125199675559998,-0.010491999797523,0.6046319603919983,0.2100000083446502,-0.5249999761581421,-0.1924999952316284
14.643610985398416,-0.8081279993057251,-0.0114679997786879,0.6004840135574341,0.4200000166893005,-4.882500171661377,0.1574999988079071
14.663753503947795,-0.7988559603691101,-0.0102479998022317,0.5953599810600281,0.5425000190734863,-5.670000076293945,0.3849999904632568
14.683896022497175,-0.7964159846305847,-0.0117119997739791,0.594871997833252,0.3675000071525574,-2.484999895095825,0.0700000002980232
14.704038541046554,-0.8020280003547668,-0.0100039998069405,0.5987759828567505,0.1050000041723251,1.2599999904632568,-0.3849999904632568
14.724181059595933,-0.8076399564743042,-0.0100039998069405,0.6043879985809326,0.0874999985098838,1.5924999713897705,-0.4375
14.744323578145313,-0.8083719611167908,-0.009515999816358,0.6041439771652222,0.2800000011920929,-1.3125,-0.0700000002980232
14.764466096694692,-0.8008080124855042,-0.0114679997786879,0.6004840135574341,0.5950000286102295,-3.692500114440918,0.3849999904632568
14.784608615244071,-0.7959280014038086,-0.010491999797523,0.5973119735717773,0.5950000286102295,-2.6600000858306885,0.262499988079071
14.80475113379345,-0.794219970703125,-0.0119559997692704,0.5951159596443176,0.1924999952316284,0.962499976158142,-0.2800000011920929
14.82489365234283,-0.8022719621658325,-0.0107359997928142,0.6004840135574341,-0.0350000001490116,4.760000228881836,-0.6474999785423279
14.84503617089221,-0.8078839778900146,-0.0107359997928142,0.603655993938446,0.0175000000745058,4.934999942779541,-0.5600000023841858
14.865178689441588,-0.8088600039482117,-0.0100039998069405,0.6029239892959595,0.1749999970197677,1.8725000619888303,-0.262499988079071
14.885321207990968,-0.8027600049972534,-0.0097599998116493,0.5987759828567505,0.2800000011920929,-0.2975000143051147,-0.0700000002980232
14.905463726540347,-0.8010519742965698,-0.0126879997551441,0.5970680117607117,0.2450000047683715,0.1574999988079071,-0.0700000002980232
14.925606245089726,-0.8069080114364624,-0.010491999797523,0.5997520089149475,0.0874999985098838,2.1524999141693115,-0.4200000166893005
14.945748763639106,-0.8091039657592773,-0.0109799997881054,0.6029239892959595,0.1050000041723251,0.8224999904632568,-0.3149999976158142
14.965891282188485,-0.806663990020752,-0.0119559997692704,0.6014599800109863,0.2975000143051147,-1.9600000381469729,0.0350000001490116
14.986033800737864,-0.8020280003547668,-0.0112239997833967,0.5982879996299744,0.4724999964237213,-3.132499933242798,0.2275000065565109
15.006176319287244,-0.7990999817848206,-0.0109799997881054,0.5970680117607117,0.4025000035762787,-2.0299999713897705,0.0350000001490116
15.026318837836623,-0.8020280003547668,-0.0107359997928142,0.5970680117607117,0.2275000065565109,0.1924999952316284,-0.1924999952316284
15.046461356386002,-0.8030039668083191,-0.0102479998022317,0.5999959707260132,0.1225000023841857,1.7324999570846558,-0.3149999976158142
15.066603874935382,-0.8061760067939758,-0.0109799997881054,0.6019479632377625,0.1924999952316284,1.3650000095367432,-0.262499988079071
15.086746393484761,-0.80349200963974,-0.0117119997739791,0.5992639660835266,0.2100000083446502,-0.1400000005960464,-0.1225000023841857
15.10688891203414,-0.8027600049972534,-0.0117119997739791,0.6002399921417236,0.2800000011920929,1.1549999713897705,-0.2100000083446502
15.12703143058352,-0.8030039668083191,-0.0102479998022317,0.5992639660835266,0.1050000041723251,0.9275000095367432,-0.3849999904632568
15.147173949132899,-0.8039799928665161,-0.0109799997881054,0.5992639660835266,0.2450000047683715,0.7699999809265137,-0.262499988079071
15.167316467682278,-0.8044679760932922,-0.0112239997833967,0.6002399921417236,0.3149999976158142,0.5249999761581421,-0.0525000020861625
15.187458986231658,-0.80349200963974,-0.0114679997786879,0.6004840135574341,0.2450000047683715,-0.0175000000745058,-0.1574999988079071
15.207601504781037,-0.8039799928665161,-0.0109799997881054,0.5999959707260132,0.2450000047683715,-0.262499988079071,-0.2450000047683715
15.227744023330416,-0.8032479882240295,-0.0109799997881054,0.5995079874992371,0.262499988079071,-0.3149999976158142,-0.1574999988079071
15.247886541879796,-0.8027600049972534,-0.0112239997833967,0.5987759828567505,0.3499999940395355,-0.1574999988079071,-0.0350000001490116
15.268029060429175,-0.8030039668083191,-0.0119559997692704,0.5990200042724609,0.2450000047683715,0.2450000047683715,-0.1749999970197677
15.288171578978554,-0.8030039668083191,-0.0107359997928142,0.5992639660835266,0.1400000005960464,0.6474999785423279,-0.2800000011920929
15.308314097527933,-0.80349200963974,-0.0107359997928142,0.5990200042724609,0.2100000083446502,0.9275000095367432,-0.1749999970197677
15.328456616077313,-0.8049559593200684,-0.0117119997739791,0.5999959707260132,0.262499988079071,0.8050000071525574,-0.1050000041723251
15.348599134626692,-0.8039799928665161,-0.0109799997881054,0.5999959707260132,0.2275000065565109,0.5425000190734863,-0.1924999952316284
15.368741653176071,-0.8037359714508057,-0.0102479998022317,0.5990200042724609,0.1924999952316284,0.1924999952316284,-0.1749999970197677
15.38888417172545,-0.8039799928665161,-0.0107359997928142,0.5992639660835266,0.2975000143051147,-0.0525000020861625,-0.1050000041723251
15.40902669027483,-0.8032479882240295,-0.0114679997786879,0.5999959707260132,0.332500010728836,-0.1924999952316284,-0.0350000001490116
15.42916920882421,-0.8020280003547668,-0.0109799997881054,0.5990200042724609,0.2275000065565109,0.2450000047683715,-0.1749999970197677
15.449311727373589,-0.8037359714508057,-0.0112239997833967,0.5987759828567505,0.2450000047683715,0.4550000131130218,-0.1924999952316284
15.469454245922968,-0.8030039668083191,-0.0121999997645616,0.5992639660835266,0.2100000083446502,0.6650000214576721,-0.1749999970197677
15.489596764472347,-0.8047119975090027,-0.0107359997928142,0.5992639660835266,0.2275000065565109,0.4724999964237213,-0.2450000047683715
15.509739283021727,-0.8042240142822266,-0.0114679997786879,0.5992639660835266,0.2275000065565109,0.2100000083446502,-0.1574999988079071
15.529881801571106,-0.8037359714508057,-0.0112239997833967,0.5997520089149475,0.2275000065565109,0.0874999985098838,-0.1225000023841857
15.550024320120485,-0.8044679760932922,-0.0121999997645616,0.5995079874992371,0.2450000047683715,-0.0175000000745058,-0.1400000005960464
15.570166838669865,-0.8037359714508057,-0.0117119997739791,0.5990200042724609,0.2450000047683715,0.1050000041723251,-0.1924999952316284
15.590309357219244,-0.8039799928665161,-0.0117119997739791,0.5995079874992371,0.2100000083446502,0.3149999976158142,-0.1749999970197677
15.610451875768623,-0.8047119975090027,-0.0121999997645616,0.5995079874992371,0.2450000047683715,0.5249999761581421,-0.1574999988079071
15.630594394318003,-0.8042240142822266,-0.0119559997692704,0.5995079874992371,0.2100000083446502,0.6825000047683716,-0.1749999970197677
15.650736912867382,-0.8032479882240295,-0.010491999797523,0.5992639660835266,0.1924999952316284,0.6299999952316284,-0.1924999952316284
15.670879431416761,-0.8044679760932922,-0.0119559997692704,0.5987759828567505,0.2100000083446502,0.4900000095367431,-0.1924999952316284
15.69102194996614,-0.8030039668083191,-0.0114679997786879,0.5987759828567505,0.2275000065565109,0.2450000047683715,-0.1574999988079071
15.71116446851552,-0.8042240142822266,-0.010491999797523,0.5992639660835266,0.2450000047683715,-0.0700000002980232,-0.1749999970197677
15.7313069870649,-0.8032479882240295,-0.010491999797523,0.5992639660835266,0.262499988079071,0.0525000020861625,-0.2100000083446502
15.751449505614278,-0.80349200963974,-0.0109799997881054,0.5990200042724609,0.3149999976158142,0.2975000143051147,-0.1225000023841857
15.771592024163658,-0.8042240142822266,-0.0114679997786879,0.5987759828567505,0.2450000047683715,0.4900000095367431,-0.1225000023841857
15.791734542713037,-0.8037359714508057,-0.0117119997739791,0.5990200042724609,0.1924999952316284,0.4550000131130218,-0.2450000047683715
15.811877061262416,-0.8037359714508057,-0.0117119997739791,0.5995079874992371,0.2275000065565109,0.4200000166893005,-0.2275000065565109
15.832019579811796,-0.8037359714508057,-0.0107359997928142,0.5992639660835266,0.2975000143051147,0.3675000071525574,-0.1225000023841857
15.852162098361175,-0.8027600049972534,-0.0114679997786879,0.5987759828567505,0.2100000083446502,0.3149999976158142,-0.1225000023841857
15.872304616910554,-0.8042240142822266,-0.0114679997786879,0.5992639660835266,0.2275000065565109,0.1574999988079071,-0.2100000083446502
15.892447135459934,-0.8049559593200684,-0.0117119997739791,0.5987759828567505,0.262499988079071,0.1400000005960464,-0.1225000023841857
15.912589654009313,-0.8030039668083191,-0.0117119997739791,0.5990200042724609,0.2975000143051147,0.1924999952316284,-0.1050000041723251
15.932732172558692,-0.8027600049972534,-0.0112239997833967,0.5999959707260132,0.2800000011920929,0.3149999976158142,-0.1924999952316284
15.952874691108072,-0.8037359714508057,-0.0112239997833967,0.5987759828567505,0.2450000047683715,0.4200000166893005,-0.2275000065565109
15.973017209657451,-0.8037359714508057,-0.010491999797523,0.5978000164031982,0.2275000065565109,0.5074999928474426,-0.1400000005960464
15.99315972820683,-0.8037359714508057,-0.0109799997881054,0.5992639660835266,0.262499988079071,0.3849999904632568,-0.1749999970197677
16.013302246756208,-0.8032479882240295,-0.0109799997881054,0.6002399921417236,0.2100000083446502,0.2975000143051147,-0.2100000083446502
16.033444765305585,-0.8042240142822266,-0.0112239997833967,0.5987759828567505,0.2450000047683715,0.2275000065565109,-0.1749999970197677
16.053587283854963,-0.8039799928665161,-0.0114679997786879,0.5992639660835266,0.262499988079071,0.1574999988079071,-0.1225000023841857
16.07372980240434,-0.8027600049972534,-0.0097599998116493,0.5987759828567505,0.1924999952316284,0.1924999952316284,-0.2100000083446502
16.093872320953718,-0.8039799928665161,-0.0119559997692704,0.59853196144104,0.2450000047683715,0.3675000071525574,-0.1574999988079071
16.114014839503096,-0.8042240142822266,-0.0114679997786879,0.5978000164031982,0.2975000143051147,0.3849999904632568,-0.1225000023841857
16.134157358052473,-0.8042240142822266,-0.0114679997786879,0.59853196144104,0.262499988079071,0.4200000166893005,-0.2100000083446502
16.15429987660185,-0.8039799928665161,-0.0107359997928142,0.5990200042724609,0.2100000083446502,0.3675000071525574,-0.1924999952316284
16.174442395151228,-0.8037359714508057,-0.0112239997833967,0.5995079874992371,0.262499988079071,0.3149999976158142,-0.1225000023841857
16.194584913700606,-0.80349200963974,-0.0112239997833967,0.5995079874992371,0.2800000011920929,0.2800000011920929,-0.1050000041723251
16.214727432249983,-0.8117879629135132,-0.0124439997598528,0.5929200053215027,0.2975000143051147,0.1749999970197677,-0.2100000083446502
16.23486995079936,-0.7976359724998474,-0.0078079998493194,0.6012159585952759,0.4025000035762787,-0.7875000238418579,-0.332500010728836
16.25501246934874,-0.8003199696540833,-0.0139079997316002,0.6031680107116699,0.2275000065565109,-0.3499999940395355,-0.0874999985098838
16.275154987898116,-0.7834839820861816,-0.0141519997268915,0.6097559928894043,0.1749999970197677,1.3650000095367432,0.1050000041723251
16.295297506447493,-0.8222799897193909,-0.0036599999293684,0.590723991394043,0.1050000041723251,2.3975000381469727,-0.875
16.31544002499687,-0.8203279972076416,-0.0434319972991943,0.5877959728240967,3.902499914169312,-0.1225000023841857,-3.9375
16.33558254354625,-0.8117879629135132,-0.0153719997033476,0.6075599789619446,-1.277500033378601,-4.042500019073486,-14.489999771118164
16.355725062095626,-0.8149600028991699,-0.0241560004651546,0.6043879985809326,-4.724999904632568,-5.547500133514404,-24.167499542236328
16.375867580645004,-0.779092013835907,-0.0200079996138811,0.6178079843521118,-5.827499866485596,-7.385000228881836,-26.162500381469727
16.39601009919438,-0.7898280024528503,0.0034159999340772,0.6043879985809326,-6.125,-9.100000381469728,-18.53249931335449
16.41615261774376,-0.84716796875,0.2391199916601181,0.6653879880905151,-30.83500099182129,-8.172499656677246,-1.2424999475479126
16.436295136293136,-0.8486319780349731,0.2266760021448135,0.6539199948310852,-92.2249984741211,-26.372499465942383,29.155000686645508
16.456437654842514,-0.935983955860138,-0.0126879997551441,0.7029640078544617,-86.60749816894531,-45.36000061035156,56.84000015258789
16.47658017339189,-0.9340319633483888,0.0141519997268915,0.80349200963974,-77.36750030517578,-91.84000396728516,60.72499847412109
16.49672269194127,-0.8420439958572388,-0.4265120029449463,0.6512359976768494,-112.47250366210938,-155.69749450683594,24.53499984741211
16.516865210490646,-0.7400519847869873,-0.4596959948539734,0.6814919710159302,-91.84000396728516,-192.81500244140625,-21.15749931335449
16.537007729040024,-0.7759199738502502,-0.076615996658802,0.7034519910812378,-80.18499755859375,-193.07749938964844,-73.32499694824219
16.5571502475894,-0.7664039731025696,0.1093119978904724,1.093608021736145,-150.2375030517578,-178.0449981689453,-87.81500244140625
16.57729276613878,-0.827892005443573,-0.3523359894752502,1.0570080280303955,-214.88250732421875,-184.3800048828125,-76.58000183105469
16.597435284688157,-0.6570919752120972,-0.9650200009346008,0.8327719569206238,-89.19750213623047,-259.31500244140625,-77.5250015258789
16.617577803237534,-0.4872680008411407,-0.55485600233078,0.7661600112915039,102.4800033569336,-341.8800048828125,-46.83000183105469
16.63772032178691,-0.4767760038375854,-0.2730360031127929,0.9071919918060304,146.3000030517578,-336.1400146484375,-19.950000762939453
16.65786284033629,-0.6200039982795715,-0.1754359900951385,1.3185759782791138,77.73500061035156,-258.125,-10.167500495910645
16.678005358885667,-0.115167997777462,-0.4233399927616119,0.8588799834251404,104.72000122070312,-200.04249572753903,-7.752500057220459
16.698147877435044,-0.2095959931612014,-0.0570959970355033,1.047003984451294,151.7949981689453,-230.1425018310547,18.112499237060547
16.718290395984422,-0.2466839998960495,-0.2452199906110763,0.8361879587173462,135.24000549316406,-185.7975006103516,3.569999933242798
16.7384329145338,-0.4147999882698059,0.2659600079059601,1.130695939064026,121.0124969482422,-124.98500061035156,-30.274999618530277
16.758575433083177,-0.1578679978847503,-0.0553879998624324,1.119715929031372,114.90499877929688,9.800000190734863,-103.38999938964844
16.778717951632554,-0.2569319903850555,0.0710039958357811,1.1045880317687988,130.5675048828125,104.33499908447266,-127.5749969482422
16.798860470181932,-0.2369239926338195,-0.0295239984989166,0.7393199801445007,79.85250091552734,158.09500122070312,-102.34000396728516
16.81900298873131,-0.5765720009803772,0.0326960012316703,0.6961320042610168,134.9425048828125,199.8500061035156,-87.27249908447266
16.839145507280687,-0.6619719862937927,0.1507920026779174,0.7542039752006531,219.69500732421875,234.16749572753903,-81.65499877929688
16.859288025830065,-0.6373279690742493,0.4699440002441406,0.9401319622993468,249.49749755859372,333.00750732421875,-50.8025016784668
16.879430544379442,-0.975268006324768,0.6295199990272522,1.069451928138733,201.0225067138672,358.62750244140625,12.197500228881836
16.89957306292882,-0.9847840070724488,0.5033720135688782,1.0233359336853027,164.9550018310547,313.8974914550781,59.81499862670898
16.919715581478197,-0.856440007686615,0.5111799836158752,0.7224839925765991,118.125,238.15750122070312,96.65250396728516
16.939858100027575,-0.6060959696769714,0.3584359884262085,0.5502200126647949,55.51000213623047,173.9499969482422,124.54750061035156
16.960000618576952,-0.7300480008125305,0.2469279915094375,0.6519680023193359,39.91749954223633,141.82000732421875,117.28500366210938
16.98014313712633,-0.8618080019950867,0.5153279900550842,0.7793359756469727,67.18250274658203,125.31749725341795,106.71500396728516
17.000285655675707,-0.958187997341156,0.8054440021514893,0.6990599632263184,100.15250396728516,68.3550033569336,68.37249755859375
17.020428174225085,-0.561199963092804,0.6431840062141418,0.7664039731025696,101.18499755859376,-31.95499992370605,-8.645000457763672
17.040570692774462,-0.2032520025968551,0.3586799800395965,0.7566440105438232,16.047500610351562,-91.36750030517578,-64.2249984741211
17.06071321132384,-0.2549799978733063,0.3752720057964325,0.7720159888267517,-49.647499084472656,-131.77499389648438,-86.37999725341797
17.080855729873218,-0.5826719999313354,0.0868639945983886,0.6888119578361511,-42.209999084472656,-164.13250732421875,-91.47250366210938
17.100998248422595,-0.3823480010032654,0.4960519969463348,0.6331799626350403,29.207500457763672,-234.18499755859372,-123.0250015258789
17.121140766971973,0.0736880004405975,0.8979200124740601,0.9006040096282959,55.58000183105469,-248.5175018310547,-193.97000122070312
17.14128328552135,0.6744160056114197,0.9945439696311952,0.8515599966049194,-59.37749862670898,-172.42750549316406,-179.93499755859375
17.161425804070728,0.452131986618042,0.3340359926223755,0.6341559886932373,-132.61500549316406,-96.04000091552734,-75.7750015258789
17.181568322620105,-0.1449359953403473,0.4582319855690002,0.5450959801673889,-37.59000015258789,-66.81500244140625,-27.52750015258789
17.201710841169483,-0.1312720030546188,1.1692479848861694,0.937936007976532,32.63750076293945,-70.57749938964844,15.154999732971191
17.22185335971886,0.0400159992277622,0.6756359934806824,0.8337479829788208,-3.674999952316284,-87.27249908447266,92.2249984741211
17.241995878268238,0.2559559941291809,0.3040239810943603,0.6997919678688049,25.14750099182129,-121.3625030517578,133.29750061035156
17.262138396817615,0.4953199923038482,0.5502200126647949,1.0516400337219238,45.46500015258789,-111.9124984741211,91.3324966430664
17.282280915366993,0.317931979894638,0.4284639954566955,1.0623760223388672,-103.19750213623048,-36.22499847412109,64.36499786376953
17.30242343391637,0.3455039858818054,0.3052439987659454,0.9911279678344728,-72.50250244140625,-59.97249984741211,15.78499984741211
17.322565952465748,0.3459919989109039,0.31768798828125,1.0116239786148071,-39.21749877929688,-98.36750030517578,37.08250045776367
17.342708471015126,0.4879999756813049,0.23887600004673,1.1145919561386108,-42.71749877929688,-79.69499969482422,18.14750099182129
17.362850989564503,0.4567679762840271,0.2986559867858886,1.2334200143814087,-72.69499969482422,-50.2599983215332,-19.372499465942383
17.38299350811388,0.3925960063934326,0.3008520007133484,1.154363989830017,-72.46749877929688,-27.93000030517578,-24.79750061035156
17.403136026663258,0.1522559970617294,0.1815359890460968,0.9564799666404724,-34.877498626708984,-20.982500076293945,-10.9375
17.423278545212636,0.3150039911270141,0.1300520002841949,0.977463960647583,17.377500534057617,-55.45750045776367,-2.327500104904175
17.443421063762013,0.2466839998960495,0.2252119928598404,1.0287039279937744,14.524999618530272,-65.41500091552734,-22.24250030517578
17.46356358231139,0.2271640002727508,0.2366800010204315,0.9403759837150574,-7.262499809265137,-25.00749969482422,-31.36000061035156
17.48370610086077,0.1815359890460968,0.228872001171112,0.9147560000419616,-10.744999885559082,-19.302499771118164,-33.86249923706055
17.503848619410146,0.2654719948768616,0.230335995554924,0.993079960346222,-8.34749984741211,-40.31999969482422,-37.397499084472656
17.523991137959523,0.3635599911212921,0.1949559897184372,0.990884006023407,9.327500343322754,-50.88999938964844,-40.022499084472656
17.5441336565089,0.3050000071525574,0.1803160011768341,0.9025560021400452,25.165000915527344,-64.2074966430664,-46.83000183105469
17.56427617505828,0.2420479953289032,0.1964199990034103,0.7805559635162354,-3.587500095367432,-70.0875015258789,-50.470001220703125
17.584418693607656,0.281819999217987,0.1956879943609237,0.7346839904785156,-28.21000099182129,-54.040000915527344,-55.685001373291016
17.604561212157034,0.3093920052051544,0.142984002828598,0.7703079581260681,-27.15999984741211,-28.717500686645508,-59.290000915527344
17.62470373070641,0.2386319935321808,0.0617319978773593,0.6836879849433899,-19.75749969482422,-21.927499771118164,-54.040000915527344
17.64484624925579,0.2176479995250702,0.0722239986062049,0.7051599621772766,-23.64249992370605,-32.130001068115234,-60.00749969482422
17.664988767805166,0.009515999816358,0.2081319987773895,0.6868599653244019,-44.432498931884766,-25.32250022888184,-77.57749938964844
17.685131286354544,0.0578279979526996,0.1407880038022995,0.7073559761047363,-78.01499938964844,-31.989999771118164,-68.23249816894531
17.70527380490392,0.1022359952330589,0.2186239957809448,0.7595719695091248,-83.33499908447266,-44.55500030517578,-48.790000915527344
17.7254163234533,0.342087984085083,0.0888160020112991,0.815447986125946,-71.71500396728516,-18.74250030517578,-46.39250183105469
17.745558842002676,0.1183400005102157,0.0078079998493194,0.7117480039596558,-47.42499923706055,16.59000015258789,-52.77999877929688
17.765701360552054,-0.4370039999485016,0.2117919921875,0.5111799836158752,-41.58000183105469,10.289999961853027,-61.86249923706055
17.78584387910143,0.4760439991950989,0.2676680088043213,0.9659959673881532,-86.76499938964844,-23.48500061035156,-55.96500015258789
17.80598639765081,-0.0761279985308647,0.0873520001769065,0.8305760025978088,-87.56999969482422,26.4950008392334,-35.42000198364258
17.826128916200187,0.0861319974064827,0.2874319851398468,1.047003984451294,-74.65499877929688,10.3774995803833,5.775000095367432
17.846271434749564,-0.1651879996061325,0.1725080013275146,0.6941800117492676,-35.962501525878906,18.8125,29.662500381469727
17.86641395329894,-0.1083360016345977,0.3550199866294861,0.7668919563293457,-16.15250015258789,34.317501068115234,20.229999542236328
17.88655647184832,-0.5895040035247803,0.1222440004348754,1.0604239702224731,-124.0749969482422,7.945000171661377,-3.902499914169312
17.906698990397697,-0.5712040066719055,0.1249279975891113,1.2170720100402832,-101.8499984741211,-12.21500015258789,0.5774999856948853
17.926841508947074,-0.7751879692077637,0.2435119897127151,1.4632679224014282,-10.675000190734863,-57.032501220703125,27.020000457763672
17.946984027496452,-0.9594079852104188,0.3054879903793335,1.3556640148162842,60.567501068115234,-103.19750213623048,85.59249877929688
17.96712654604583,-0.59170001745224,0.0719799995422363,1.3590799570083618,123.74250030517578,-177.57249450683594,158.32249450683594
17.987269064595207,-0.2239919900894165,0.1925159990787506,1.191208004951477,244.3699951171875,-179.27000427246094,189.47250366210935
18.007411583144584,-0.3903999924659729,0.5794999599456787,1.124351978302002,269.2550048828125,-111.37000274658205,177.08250427246094
18.027554101693962,-0.4123599827289581,0.6097559928894043,0.9013359546661376,158.75999450683594,-149.78250122070312,163.06500244140625
18.04769662024334,-0.0993079990148544,0.3894239962100982,0.9496479630470276,47.42499923706055,-253.1725006103516,142.30999755859375
18.067839138792717,0.2637639939785003,0.4631119966506958,0.9420839548110962,-43.505001068115234,-254.2749938964844,117.37249755859376
18.087981657342095,0.2420479953289032,0.510204017162323,1.0455399751663208,-119.50749969482422,-166.60000610351562,104.37000274658205
18.108124175891472,0.224723994731903,0.5697399973869324,1.0726239681243896,-155.43499755859375,-59.16749954223633,84.73500061035156
18.12826669444085,-0.0126879997551441,0.5914559960365295,0.944767951965332,-146.22999572753906,34.650001525878906,104.40499877929688
18.148409212990227,-0.0480679981410503,0.5055679678916931,0.8281359672546387,-44.22249984741211,20.842500686645508,165.91749572753906
18.168551731539605,-0.065880000591278,0.2400960028171539,1.1455799341201782,15.907500267028809,24.7450008392334,234.46499633789065
18.188694250088982,-0.0251320004463195,-0.1041879951953888,1.1999919414520264,11.6899995803833,9.274999618530272,242.44500732421875
18.20883676863836,0.0793000012636184,-0.2461960017681121,1.125815987586975,1.715000033378601,-56.80500030517578,244.8249969482422
