Time (seconds),acc_x,acc_y,acc_z,gyro_x,gyro_y,gyro_z
0.020301470377578824,0.1876360028982162,-0.733951985836029,0.6624599695205688,2.240000009536743,1.5049999952316284,-0.9800000190734864
0.04060294075515765,0.1861719936132431,-0.733951985836029,0.6651439666748047,2.012500047683716,1.3125,-0.9275000095367432
0.06090441113273647,0.1849519908428192,-0.7349280118942261,0.6673399806022644,1.5924999713897705,1.0674999952316284,-0.962499976158142
0.0812058815103153,0.1876360028982162,-0.7356599569320679,0.6668519973754883,1.277500033378601,0.9100000262260436,-0.9275000095367432
0.10150735188789412,0.1886119991540908,-0.7349280118942261,0.6666079759597778,1.0674999952316284,0.8224999904632568,-0.6825000047683716
0.12180882226547293,0.1900759935379028,-0.7351719737052917,0.6695359945297241,1.2074999809265137,0.5074999928474426,-0.5600000023841858
0.14211029264305175,0.1927599906921386,-0.7319999933242798,0.6714879870414734,1.0850000381469729,0.0350000001490116,-0.4375
0.16241176302063057,0.1920280009508133,-0.7349280118942261,0.6688039898872375,0.5249999761581421,-0.1400000005960464,-0.0350000001490116
0.18271323339820938,0.1871479898691177,-0.7385879755020142,0.664900004863739,0.2450000047683715,-0.2100000083446502,0.2275000065565109
0.2030147037757882,0.1803160011768341,-0.738099992275238,0.6641680002212524,0.2800000011920929,-0.612500011920929,0.2800000011920929
0.22331617415336702,0.1786080002784729,-0.7373679876327515,0.6658759713172913,0.0525000020861625,-1.3300000429153442,0.262499988079071
0.24361764453094584,0.1790959984064102,-0.7373679876327515,0.6666079759597778,-0.2450000047683715,-1.8899999856948853,0.5425000190734863
0.26391911490852465,0.1822679936885833,-0.7351719737052917,0.667095959186554,-0.332500010728836,-1.9075000286102293,0.8575000166893005
0.2842205852861035,0.1871479898691177,-0.737123966217041,0.6673399806022644,-0.1924999952316284,-1.5225000381469729,1.0499999523162842
0.30452205566368235,0.1871479898691177,-0.7351719737052917,0.6695359945297241,0.4025000035762787,-1.2074999809265137,0.9449999928474426
0.3248235260412612,0.1866599917411804,-0.7349280118942261,0.6710000038146973,0.7524999976158142,-1.4700000286102295,0.8400000333786011
0.34512499641884004,0.1890999972820282,-0.737123966217041,0.6673399806022644,0.7699999809265137,-1.784999966621399,0.7699999809265137
0.3654264667964189,0.1915400028228759,-0.7324879765510559,0.6629480123519897,0.1924999952316284,-2.275000095367432,0.7699999809265137
0.3857279371739977,0.1912959963083267,-0.7332199811935425,0.6631919741630554,-0.8400000333786011,-2.309999942779541,0.962499976158142
0.40602940755157657,0.1886119991540908,-0.7334640026092529,0.6619719862937927,-1.8899999856948853,-2.1524999141693115,1.2949999570846558
0.4263308779291554,0.1881240010261535,-0.7341960072517395,0.6614840030670166,-2.380000114440918,-1.75,1.4700000286102295
0.44663234830673426,0.1866599917411804,-0.733951985836029,0.6627039909362793,-2.817500114440918,-1.2074999809265137,1.6100000143051147
0.4669338186843131,0.1864160001277923,-0.7390759587287903,0.6627039909362793,-3.307500123977661,-0.3675000071525574,1.924999952316284
0.48723528906189195,0.1869039982557296,-0.7400519847869873,0.6570919752120972,-3.220000028610229,0.3849999904632568,1.837499976158142
0.5075367594394707,0.1898320019245147,-0.7398079633712769,0.6544079780578613,-2.712500095367432,0.699999988079071,1.399999976158142
0.5278382298170495,0.1915400028228759,-0.7366359829902649,0.6583119630813599,-2.432500123977661,0.8050000071525574,1.225000023841858
0.5481397001946283,0.1910519897937774,-0.7346839904785156,0.6595320105552673,-2.747499942779541,0.8400000333786011,0.9975000023841858
0.5684411705722071,0.1837320029735565,-0.7366359829902649,0.6617279648780823,-2.887500047683716,0.699999988079071,0.6825000047683716
0.5887426409497859,0.1810479909181594,-0.7410280108451843,0.6636799573898315,-2.6424999237060547,0.3499999940395355,0.5774999856948853
0.6090441113273647,0.1847079992294311,-0.7466399669647217,0.6602640151977539,-2.309999942779541,-0.2100000083446502,0.7175000309944153
0.6293455817049435,0.1864160001277923,-0.7515199780464172,0.6558719873428345,-1.5049999952316284,-0.7524999976158142,0.7699999809265137
0.6496470520825223,0.1678719967603683,-0.6729519963264465,0.6422079801559448,-0.0175000000745058,-1.3300000429153442,1.1200000047683716
0.6699485224601011,0.2049599885940551,-0.8366760015487671,0.6712439656257629,4.882500171661377,-1.662500023841858,10.587499618530272
0.6902499928376798,0.1871479898691177,-0.753715991973877,0.6546519994735718,-0.1225000023841857,-3.115000009536743,2.0299999713897705
0.7105514632152586,0.1844639927148819,-0.7444440126419067,0.6512359976768494,0.0350000001490116,-3.3949999809265137,2.240000009536743
0.7308529335928374,0.1820240020751953,-0.7395640015602112,0.6546519994735718,-0.8924999833106995,-3.569999933242798,3.220000028610229
0.7511544039704162,0.1825120002031326,-0.7424919605255127,0.6585559844970703,-2.0299999713897705,-3.972500085830689,4.025000095367432
0.771455874347995,0.1842200011014938,-0.7483479976654053,0.6651439666748047,-3.237499952316284,-4.199999809265137,4.550000190734863
0.7917573447255738,0.1864160001277923,-0.7551800012588501,0.6629480123519897,-4.147500038146973,-3.867500066757202,4.742499828338623
0.8120588151031526,0.1842200011014938,-0.7563999891281128,0.6553840041160583,-3.5350000858306885,-3.5350000858306885,4.322500228881836
0.8323602854807314,0.1815359890460968,-0.7517639994621277,0.6531879901885986,-2.572499990463257,-3.990000009536743,3.325000047683716
0.8526617558583102,0.1847079992294311,-0.748591959476471,0.655627965927124,-2.572499990463257,-4.235000133514404,2.712500095367432
0.872963226235889,0.1854400038719177,-0.7473719716072083,0.6583119630813599,-3.009999990463257,-4.112500190734863,2.6600000858306885
0.8932646966134677,0.1822679936885833,-0.7405399680137634,0.6580680012702942,-2.9574999809265137,-4.059999942779541,2.765000104904175
0.9135661669910465,0.1834879964590072,-0.7402960062026978,0.6580680012702942,-2.992500066757202,-4.025000095367432,2.5899999141693115
0.9338676373686253,0.1886119991540908,-0.7437120079994202,0.6580680012702942,-3.132499933242798,-3.849999904632568,1.9424999952316284
0.9541691077462041,0.1920280009508133,-0.7432239651679993,0.6529439687728882,-3.202500104904175,-3.902499914169312,1.1549999713897705
0.9744705781237829,0.1861719936132431,-0.7444440126419067,0.6429399847984314,-4.567500114440918,-4.65500020980835,0.0874999985098838
0.9947720485013617,0.1888559907674789,-0.7437120079994202,0.6419639587402344,-5.547500133514404,-4.917500019073486,-0.0874999985098838
1.0150735188789406,0.1888559907674789,-0.7493239641189575,0.6385480165481567,-5.949999809265137,-5.074999809265137,0.0175000000745058
1.0353749892565194,0.1883679926395416,-0.7534719705581665,0.6348879933357239,-5.775000095367432,-4.882500171661377,-0.1749999970197677
1.0556764596340982,0.1942239999771118,-0.7554239630699158,0.6324479579925537,-5.792500019073486,-4.724999904632568,-0.6825000047683716
1.075977930011677,0.20032399892807,-0.7549359798431396,0.6304959654808044,-6.054999828338623,-4.252500057220459,-1.2424999475479126
1.0962794003892558,0.201787993311882,-0.7539600133895874,0.6285439729690552,-6.40500020980835,-3.867500066757202,-1.399999976158142
1.1165808707668345,0.1983719915151596,-0.7524960041046143,0.631227970123291,-6.807499885559082,-3.255000114440918,-1.3300000429153442
1.1368823411444133,0.1976400017738342,-0.76664799451828,0.6209799647331238,-7.315000057220459,-2.625,-1.277500033378601
1.1571838115219921,0.2022759914398193,-0.7683559656143188,0.6200039982795715,-6.002500057220459,-2.309999942779541,-2.0999999046325684
1.177485281899571,0.2042279988527298,-0.7661600112915039,0.6107319593429565,-5.617499828338623,-1.5750000476837158,-2.432500123977661
1.1977867522771497,0.2034959942102432,-0.7700639963150024,0.6073160171508789,-5.827499866485596,-1.2599999904632568,-2.309999942779541
1.2180882226547285,0.2037400007247924,-0.7727479934692383,0.6121959686279297,-5.547500133514404,-1.0850000381469729,-2.0299999713897705
1.2383896930323073,0.2012999951839447,-0.7768959999084473,0.6187840104103088,-4.65500020980835,-0.8400000333786011,-1.6449999809265137
1.258691163409886,0.2042279988527298,-0.7776280045509338,0.6241520047187805,-4.690000057220459,-0.4200000166893005,-1.4350000619888306
1.2789926337874649,0.2015440016984939,-0.7854359745979309,0.6241520047187805,-4.900000095367432,0.3675000071525574,-1.6974999904632568
1.2992941041650437,0.2032520025968551,-0.7864120006561279,0.6226879954338074,-3.990000009536743,1.0149999856948853,-2.134999990463257
1.3195955745426224,0.1995919942855835,-0.7807999849319458,0.6165879964828491,-3.0799999237060547,1.0325000286102295,-2.0999999046325684
1.3398970449202012,0.1956879943609237,-0.7800679802894592,0.6126840114593506,-3.184999942779541,0.6650000214576721,-1.5924999713897705
1.36019851529778,0.2000799924135208,-0.7829959988594055,0.6082919836044312,-3.745000123977661,0.1749999970197677,-0.9800000190734864
1.3804999856753588,0.2066679894924163,-0.7798239588737488,0.6056079864501953,-4.497499942779541,-0.0350000001490116,-0.1749999970197677
1.4008014560529376,0.205935999751091,-0.7786039710044861,0.6043879985809326,-5.355000019073486,-0.1924999952316284,0.7524999976158142
1.4211029264305164,0.1978839933872223,-0.7793359756469727,0.6034119725227356,-5.652500152587891,-0.4724999964237213,1.1549999713897705
1.4414043968080952,0.2025199979543686,-0.7817760109901428,0.602679967880249,-5.635000228881836,-1.0850000381469729,0.9449999928474426
1.461705867185674,0.2022759914398193,-0.7805559635162354,0.6021919846534729,-4.934999942779541,-1.4700000286102295,0.5600000023841858
1.4820073375632528,0.195932000875473,-0.7771399617195129,0.6043879985809326,-4.322500228881836,-2.1875,0.3675000071525574
1.5023088079408315,0.196175992488861,-0.779092013835907,0.6070719957351685,-4.269999980926514,-2.6424999237060547,0.1400000005960464
1.5226102783184103,0.1983719915151596,-0.7854359745979309,0.6075599789619446,-3.587500095367432,-2.5199999809265137,-0.0175000000745058
1.5429117486959891,0.2020319998264312,-0.7898280024528503,0.6041439771652222,-2.6424999237060547,-1.9774999618530276,0.4375
1.563213219073568,0.2073999941349029,-0.7866559624671936,0.6021919846534729,-2.572499990463257,-1.1375000476837158,0.962499976158142
1.5835146894511467,0.2005679905414581,-0.7876319885253906,0.5970680117607117,-2.852499961853028,-0.5425000190734863,1.0674999952316284
1.6038161598287255,0.1947119981050491,-0.7895839810371399,0.5953599810600281,-2.117500066757202,-0.5425000190734863,1.0149999856948853
1.6241176302063043,0.1986159980297088,-0.7927559614181519,0.5943840146064758,-1.2424999475479126,-0.3675000071525574,0.9975000023841858
1.644419100583883,0.2012999951839447,-0.799344003200531,0.5936520099639893,-0.4025000035762787,-0.262499988079071,0.7175000309944153
1.6647205709614619,0.206179991364479,-0.7944639921188354,0.5924319624900818,0.3499999940395355,-0.6474999785423279,0.2975000143051147
1.6850220413390407,0.2044719904661178,-0.7920239567756653,0.5909680128097534,0.2275000065565109,-1.1725000143051147,0.1924999952316284
1.7053235117166194,0.2015440016984939,-0.7937319874763489,0.5929200053215027,-0.2450000047683715,-1.5225000381469729,0.2275000065565109
1.7256249820941982,0.201787993311882,-0.7934879660606384,0.5956040024757385,-0.2450000047683715,-1.3650000095367432,0.2975000143051147
1.745926452471777,0.2037400007247924,-0.7934879660606384,0.594871997833252,-0.0350000001490116,-1.0325000286102295,0.4900000095367431
1.7662279228493558,0.2069119960069656,-0.7890959978103638,0.5931639671325684,-0.0525000020861625,-0.8224999904632568,0.6474999785423279
1.7865293932269346,0.2064239978790283,-0.7883639931678772,0.587552011013031,-0.3849999904632568,-0.9449999928474426,0.3499999940395355
1.8068308636045134,0.2056919932365417,-0.791047990322113,0.5821840167045593,-0.8924999833106995,-1.1375000476837158,0.2800000011920929
1.8271323339820922,0.2071560025215149,-0.7925119996070862,0.5826719999313354,-1.0674999952316284,-1.0850000381469729,0.3675000071525574
1.847433804359671,0.205935999751091,-0.7925119996070862,0.5873079895973206,-1.0499999523162842,-0.8050000071525574,0.5600000023841858
1.8677352747372498,0.2049599885940551,-0.7912920117378235,0.5902360081672668,-0.7524999976158142,-0.4200000166893005,0.5249999761581421
1.8880367451148286,0.2049599885940551,-0.7917799949645996,0.5887719988822937,-0.0525000020861625,-0.4550000131130218,0.2975000143051147
1.9083382154924073,0.2032520025968551,-0.7915359735488892,0.5882840156555176,0.4025000035762787,-0.4724999964237213,-0.0175000000745058
1.9286396858699861,0.2010560035705566,-0.790071964263916,0.5890159606933594,0.5774999856948853,-0.6299999952316284,-0.2800000011920929
1.948941156247565,0.2012999951839447,-0.7881199717521667,0.5914559960365295,0.2450000047683715,-0.6650000214576721,-0.332500010728836
1.9692426266251437,0.2032520025968551,-0.7929999828338623,0.5904799699783325,0.0525000020861625,-0.4900000095367431,-0.332500010728836
1.9895440970027225,0.2049599885940551,-0.7929999828338623,0.5892599821090698,0.4025000035762787,-0.4375,-0.332500010728836
2.0098455673803013,0.2047159969806671,-0.7925119996070862,0.5895040035247803,0.4900000095367431,-0.7350000143051147,-0.262499988079071
2.0301470377578803,0.2052039951086044,-0.794219970703125,0.5931639671325684,0.1574999988079071,-0.8224999904632568,-0.262499988079071
2.0504485081354593,0.206179991364479,-0.7956839799880981,0.5924319624900818,0.0525000020861625,-0.6650000214576721,-0.5249999761581421
2.0707499785130383,0.2056919932365417,-0.7971479892730713,0.5919439792633057,-0.1050000041723251,-0.5249999761581421,-0.6299999952316284
2.0910514488906173,0.206179991364479,-0.795195996761322,0.5890159606933594,-0.1749999970197677,-0.1749999970197677,-0.7350000143051147
2.1113529192681963,0.2047159969806671,-0.7922679781913757,0.5885279774665833,0.1574999988079071,-0.0350000001490116,-1.0325000286102295
2.1316543896457754,0.206179991364479,-0.7927559614181519,0.5899919867515564,0.262499988079071,0.2450000047683715,-1.0850000381469729
2.1519558600233544,0.2098399996757507,-0.7944639921188354,0.5934079885482788,0.2275000065565109,0.4550000131130218,-0.875
2.1722573304009334,0.2115480005741119,-0.7961719632148743,0.5924319624900818,0.4375,0.8400000333786011,-0.699999988079071
2.1925588007785124,0.2064239978790283,-0.791047990322113,0.5914559960365295,0.699999988079071,0.7875000238418579,-0.9100000262260436
2.2128602711560914,0.2047159969806671,-0.7898280024528503,0.59170001745224,0.699999988079071,0.2975000143051147,-0.9275000095367432
2.2331617415336704,0.2039839923381805,-0.7871440052986145,0.5892599821090698,0.8050000071525574,0.1050000041723251,-0.875
2.2534632119112494,0.2047159969806671,-0.785923957824707,0.5873079895973206,0.875,0.1050000041723251,-1.0850000381469729
2.2737646822888284,0.205935999751091,-0.7876319885253906,0.590723991394043,0.612500011920929,0.1225000023841857,-1.277500033378601
2.2940661526664075,0.2076440006494522,-0.7903159856796265,0.5934079885482788,0.612500011920929,0.1749999970197677,-1.2599999904632568
2.3143676230439865,0.2083759903907776,-0.7934879660606384,0.5890159606933594,0.8924999833106995,0.1924999952316284,-1.1725000143051147
2.3346690934215655,0.2100839912891388,-0.791047990322113,0.5914559960365295,1.1200000047683716,0.0700000002980232,-1.0674999952316284
2.3549705637991445,0.2081319987773895,-0.7864120006561279,0.5980439782142639,1.0499999523162842,0.1050000041723251,-0.7875000238418579
2.3752720341767235,0.2076440006494522,-0.7854359745979309,0.6012159585952759,1.2424999475479126,0.2450000047683715,-0.8050000071525574
2.3955735045543025,0.2091079950332641,-0.7856799960136414,0.5992639660835266,1.5575000047683716,0.3149999976158142,-0.9100000262260436
2.4158749749318815,0.2098399996757507,-0.7878760099411011,0.5975559949874878,1.6449999809265137,0.1924999952316284,-0.8224999904632568
2.4361764453094605,0.2083759903907776,-0.7866559624671936,0.5963360071182251,1.399999976158142,0.0874999985098838,-0.4724999964237213
2.4564779156870395,0.2095959931612014,-0.7888519763946533,0.5960919857025146,1.0850000381469729,0.0350000001490116,-0.2275000065565109
2.4767793860646186,0.2127679884433746,-0.7888519763946533,0.5934079885482788,0.8224999904632568,0.332500010728836,0.0525000020861625
2.4970808564421976,0.2071560025215149,-0.7886079549789429,0.5919439792633057,0.9275000095367432,0.5074999928474426,0.1400000005960464
2.5173823268197766,0.2052039951086044,-0.7815319895744324,0.5970680117607117,0.8575000166893005,-0.4724999964237213,0.1749999970197677
2.5376837971973556,0.206179991364479,-0.7854359745979309,0.5999959707260132,0.1749999970197677,-0.875,0.5249999761581421
2.5579852675749346,0.2110600024461746,-0.790071964263916,0.59853196144104,0.0525000020861625,-0.962499976158142,0.6474999785423279
2.5782867379525136,0.2117919921875,-0.7883639931678772,0.5941399931907654,0.5249999761581421,-0.8924999833106995,0.3849999904632568
2.5985882083300926,0.2069119960069656,-0.786899983882904,0.5936520099639893,0.7699999809265137,-0.8050000071525574,0.1050000041723251
2.6188896787076716,0.2078879922628402,-0.785923957824707,0.5953599810600281,0.8050000071525574,-0.875,0.0350000001490116
2.6391911490852507,0.2115480005741119,-0.7847039699554443,0.5941399931907654,0.8050000071525574,-0.7524999976158142,0.1574999988079071
2.6594926194628297,0.2091079950332641,-0.7829959988594055,0.5926759839057922,0.7350000143051147,-0.4900000095367431,0.4025000035762787
2.6797940898404087,0.2076440006494522,-0.7854359745979309,0.594871997833252,0.7350000143051147,-0.3849999904632568,0.3849999904632568
2.7000955602179877,0.2108159959316253,-0.7908039689064026,0.6004840135574341,0.6299999952316284,-0.4550000131130218,0.3675000071525574
2.7203970305955667,0.2147199958562851,-0.790071964263916,0.6019479632377625,0.7524999976158142,-0.2450000047683715,0.2100000083446502
2.7406985009731457,0.2132560014724731,-0.7881199717521667,0.5982879996299744,1.1375000476837158,0.0350000001490116,-0.0700000002980232
2.7609999713507247,0.2064239978790283,-0.7864120006561279,0.5951159596443176,1.2074999809265137,0.1574999988079071,-0.2800000011920929
2.7813014417283037,0.2083759903907776,-0.7878760099411011,0.5980439782142639,0.5774999856948853,-0.1574999988079071,0.0874999985098838
2.8016029121058827,0.2083759903907776,-0.7873879671096802,0.5963360071182251,0.4200000166893005,-0.332500010728836,0.1225000023841857
2.8219043824834618,0.2086199969053268,-0.7851920127868652,0.5960919857025146,0.4724999964237213,-0.5074999928474426,-0.0350000001490116
2.8422058528610408,0.2069119960069656,-0.7851920127868652,0.5958479642868042,0.4375,-0.5774999856948853,-0.2100000083446502
2.86250732323862,0.2078879922628402,-0.7873879671096802,0.5980439782142639,0.3675000071525574,-0.6474999785423279,-0.2800000011920929
2.882808793616199,0.2091079950332641,-0.7873879671096802,0.5973119735717773,0.3675000071525574,-0.6825000047683716,-0.262499988079071
2.903110263993778,0.2105719894170761,-0.7847039699554443,0.5958479642868042,0.5425000190734863,-0.5074999928474426,-0.2275000065565109
2.923411734371357,0.2100839912891388,-0.7847039699554443,0.5970680117607117,0.4375,-0.332500010728836,-0.1400000005960464
2.943713204748936,0.2139879912137985,-0.7854359745979309,0.6014599800109863,0.332500010728836,-0.2100000083446502,-0.1400000005960464
2.964014675126515,0.2105719894170761,-0.7854359745979309,0.5995079874992371,0.6825000047683716,-0.0525000020861625,-0.4550000131130218
2.984316145504094,0.2108159959316253,-0.7847039699554443,0.5978000164031982,0.9449999928474426,0.1400000005960464,-0.9800000190734864
3.004617615881673,0.2108159959316253,-0.7832399606704712,0.5951159596443176,0.7875000238418579,0.1749999970197677,-0.7875000238418579
3.024919086259252,0.2071560025215149,-0.7832399606704712,0.5934079885482788,0.5425000190734863,-0.0700000002980232,-0.5249999761581421
3.045220556636831,0.2073999941349029,-0.7893399596214294,0.5970680117607117,0.2450000047683715,-0.2800000011920929,-0.4724999964237213
3.06552202701441,0.210327997803688,-0.7927559614181519,0.5965799689292908,0.3849999904632568,-0.2800000011920929,-0.6825000047683716
3.085823497391989,0.2147199958562851,-0.7903159856796265,0.5951159596443176,0.699999988079071,-0.3675000071525574,-1.0674999952316284
3.106124967769568,0.2125239968299865,-0.7876319885253906,0.5953599810600281,0.9275000095367432,-0.1225000023841857,-1.2074999809265137
3.126426438147147,0.2110600024461746,-0.7837280035018921,0.6002399921417236,1.1725000143051147,-0.0350000001490116,-1.347499966621399
3.146727908524726,0.2127679884433746,-0.7825079560279846,0.6051200032234192,1.190000057220459,0.0175000000745058,-1.3650000095367432
3.167029378902305,0.2156959921121597,-0.7832399606704712,0.6039000153541565,1.1375000476837158,0.332500010728836,-1.2949999570846558
3.187330849279884,0.2164279967546463,-0.7837280035018921,0.5990200042724609,1.0499999523162842,0.612500011920929,-1.277500033378601
3.207632319657463,0.2139879912137985,-0.7825079560279846,0.5973119735717773,0.962499976158142,0.5425000190734863,-1.190000057220459
3.227933790035042,0.2132560014724731,-0.7805559635162354,0.59853196144104,0.6825000047683716,0.3849999904632568,-1.0325000286102295
3.248235260412621,0.2132560014724731,-0.7817760109901428,0.5975559949874878,0.5249999761581421,0.4375,-1.0850000381469729
3.2685367307902,0.2137439996004104,-0.7842159867286682,0.594871997833252,0.7699999809265137,0.4375,-1.399999976158142
3.288838201167779,0.2134999930858612,-0.7832399606704712,0.5956040024757385,0.9975000023841858,0.3849999904632568,-1.4524999856948853
3.309139671545358,0.2127679884433746,-0.7803120017051697,0.5997520089149475,1.1024999618530271,0.612500011920929,-1.347499966621399
3.329441141922937,0.2142319977283477,-0.7812879681587219,0.5992639660835266,1.0325000286102295,0.7875000238418579,-1.2949999570846558
3.349742612300516,0.2147199958562851,-0.7798239588737488,0.5963360071182251,0.9975000023841858,0.5774999856948853,-1.3825000524520874
3.370044082678095,0.2156959921121597,-0.7827519774436951,0.5968239903450012,0.5774999856948853,0.1225000023841857,-1.1725000143051147
3.390345553055674,0.2164279967546463,-0.7844600081443787,0.6021919846534729,0.8224999904632568,0.3499999940395355,-0.9100000262260436
3.410647023433253,0.2156959921121597,-0.7849479913711548,0.6041439771652222,0.9800000190734864,0.6474999785423279,-0.7524999976158142
3.430948493810832,0.2132560014724731,-0.7834839820861816,0.6029239892959595,0.9275000095367432,0.5249999761581421,-0.7699999809265137
3.451249964188411,0.2127679884433746,-0.7805559635162354,0.6024360060691833,0.6650000214576721,0.2450000047683715,-0.9275000095367432
3.47155143456599,0.2166720032691955,-0.7815319895744324,0.6034119725227356,0.5074999928474426,0.1574999988079071,-1.0674999952316284
3.491852904943569,0.2176479995250702,-0.7847039699554443,0.6031680107116699,0.5249999761581421,0.3149999976158142,-0.9800000190734864
3.512154375321148,0.2183799892663955,-0.7825079560279846,0.6024360060691833,0.9275000095367432,0.4724999964237213,-0.875
3.532455845698727,0.2166720032691955,-0.7786039710044861,0.6014599800109863,1.1549999713897705,0.5600000023841858,-0.7699999809265137
3.552757316076306,0.2152079939842224,-0.7737239599227905,0.6019479632377625,0.9275000095367432,0.2100000083446502,-0.7875000238418579
3.573058786453885,0.2117919921875,-0.7732359766960144,0.6021919846534729,0.2275000065565109,-0.1400000005960464,-0.6650000214576721
3.593360256831464,0.2120359987020492,-0.7766519784927368,0.6039000153541565,0.0700000002980232,-0.4200000166893005,-0.5600000023841858
3.613661727209043,0.2132560014724731,-0.77811598777771,0.6051200032234192,0.4025000035762787,-0.3849999904632568,-0.5774999856948853
3.6339631975866222,0.220331996679306,-0.7807999849319458,0.6058520078659058,0.6650000214576721,0.0700000002980232,-0.6299999952316284
3.6542646679642012,0.2210640013217926,-0.7812879681587219,0.6041439771652222,0.7175000309944153,0.5425000190734863,-0.5425000190734863
3.6745661383417803,0.2191119939088821,-0.7776280045509338,0.6014599800109863,0.612500011920929,0.5774999856948853,-0.5600000023841858
3.6948676087193593,0.2169159948825836,-0.774944007396698,0.6031680107116699,0.1400000005960464,0.2450000047683715,-0.5249999761581421
3.7151690790969383,0.2178919911384582,-0.7783600091934204,0.6053639650344849,-0.1924999952316284,0.0350000001490116,-0.4025000035762787
3.7354705494745173,0.2210640013217926,-0.7800679802894592,0.6065840125083923,-0.0175000000745058,0.2275000065565109,-0.4200000166893005
3.7557720198520963,0.2213079929351806,-0.779092013835907,0.6051200032234192,0.1225000023841857,0.4200000166893005,-0.4724999964237213
3.7760734902296753,0.2193560004234314,-0.7786039710044861,0.603655993938446,0.1749999970197677,0.2450000047683715,-0.5774999856948853
3.7963749606072543,0.2193560004234314,-0.7788479924201965,0.6051200032234192,-0.0350000001490116,0.0874999985098838,-0.6474999785423279
3.8166764309848333,0.2193560004234314,-0.7820199728012085,0.6058520078659058,-0.1924999952316284,-0.0175000000745058,-0.5950000286102295
3.8369779013624123,0.2222839891910553,-0.7844600081443787,0.6053639650344849,-0.1924999952316284,0.0175000000745058,-0.4375
3.8572793717399914,0.2259439975023269,-0.7864120006561279,0.6014599800109863,-0.0874999985098838,0.3849999904632568,-0.2800000011920929
3.8775808421175704,0.2222839891910553,-0.7976359724998474,0.6029239892959595,0.0525000020861625,1.2599999904632568,0.4900000095367431
3.8978823124951494,0.2232600003480911,-0.8076399564743042,0.6046319603919983,0.2975000143051147,1.3300000429153442,1.0674999952316284
3.9181837828727284,0.228872001171112,-0.8098359704017639,0.6104879975318909,0.2975000143051147,1.4700000286102295,1.662500023841858
3.9384852532503074,0.2398519963026046,-0.8159359693527222,0.6163439750671387,-0.7875000238418579,1.2599999904632568,2.4674999713897705
3.9587867236278864,0.2422920018434524,-0.8378959894180298,0.632203996181488,-4.199999809265137,1.0149999856948853,3.7799999713897705
3.9790881940054654,0.23887600004673,-0.8454599976539612,0.6348879933357239,-5.599999904632568,0.6650000214576721,4.269999980926514
3.9993896643830444,0.2232600003480911,-0.8539999723434448,0.6317160129547119,-6.894999980926514,-0.0700000002980232,5.179999828338623
4.019691134760623,0.2154520004987716,-0.8598560094833374,0.627079963684082,-8.242500305175781,-1.2424999475479126,6.352499961853027
4.039992605138202,0.220331996679306,-0.8640039563179016,0.6121959686279297,-9.135000228881836,-1.7324999570846558,7.332499980926514
4.06029407551578,0.2215519994497299,-0.8608319759368896,0.5999959707260132,-8.960000038146973,-1.2424999475479126,8.119999885559082
4.080595545893359,0.2152079939842224,-0.8437519669532776,0.5968239903450012,-8.295000076293945,-0.962499976158142,8.452500343322754
4.100897016270937,0.2073999941349029,-0.8261839747428894,0.5841360092163086,-8.364999771118164,-1.5924999713897705,8.137499809265137
4.121198486648516,0.1925159990787506,-0.8083719611167908,0.561199963092804,-8.645000457763672,-2.362499952316284,8.1899995803833
4.141499957026094,0.1844639927148819,-0.7864120006561279,0.5431439876556396,-8.399999618530273,-2.5899999141693115,8.855000495910645
4.161801427403673,0.1781200021505355,-0.7610359787940979,0.533627986907959,-7.909999847412109,-2.257499933242798,9.520000457763672
4.1821028977812515,0.1734839975833892,-0.7302919626235962,0.5241119861602783,-7.262499809265137,-1.1200000047683716,9.642499923706056
4.20240436815883,0.1690919995307922,-0.7032079696655273,0.5163040161132812,-5.809999942779541,0.5774999856948853,8.890000343322754
4.222705838536409,0.1654319912195205,-0.6731959581375122,0.5065439939498901,-3.1675000190734863,2.345000028610229,6.772500038146973
4.243007308913987,0.1647000014781952,-0.6570919752120972,0.500931978225708,-1.277500033378601,3.2725000381469727,4.829999923706055
4.263308779291566,0.1629920005798339,-0.6475759744644165,0.5043479800224304,1.0499999523162842,3.6050000190734863,3.3949999809265137
4.283610249669144,0.1637239903211593,-0.644648015499115,0.5116679668426514,3.622499942779541,4.357500076293945,2.047499895095825
4.303911720046723,0.1698240041732788,-0.6605079770088196,0.5206959843635559,5.425000190734863,5.862500190734863,1.1375000476837158
4.3242131904243015,0.1642120033502578,-0.6953999996185303,0.5280159711837769,7.332499980926514,6.860000133514404,0.3499999940395355
4.34451466080188,0.1525000035762787,-0.74127197265625,0.5468040108680725,11.095000267028809,6.737500190734863,-0.875
4.364816131179459,0.1605519950389862,-0.7776280045509338,0.5682759881019592,16.852500915527344,6.807499885559082,-3.0450000762939453
4.385117601557037,0.1925159990787506,-0.7934879660606384,0.6014599800109863,23.13500022888184,6.824999809265137,-4.357500076293945
4.405419071934616,0.2193560004234314,-0.7964159846305847,0.6400119662284851,26.809999465942383,6.912499904632568,-4.059999942779541
4.425720542312194,0.2025199979543686,-0.7998319864273071,0.6646559834480286,26.26749992370605,5.949999809265137,-3.1675000190734863
4.446022012689773,0.1793399900197982,-0.8183760046958923,0.6678279638290405,22.977500915527344,3.640000104904175,-2.625
4.4663234830673515,0.1764120012521743,-0.8420439958572388,0.6700239777565002,20.33500099182129,1.9600000381469729,-2.0824999809265137
4.48662495344493,0.1876360028982162,-0.851315975189209,0.6824679970741272,19.162500381469727,1.1549999713897705,-1.190000057220459
4.506926423822509,0.2073999941349029,-0.8530240058898926,0.7019879817962646,16.415000915527344,0.6474999785423279,0.2800000011920929
4.527227894200087,0.2186239957809448,-0.8669319748878479,0.7229719758033752,10.885000228881836,0.1400000005960464,1.995000004768372
4.547529364577666,0.2117919921875,-0.8949919939041138,0.7190679907798767,5.09250020980835,-0.9100000262260436,2.992500066757202
4.567830834955244,0.1978839933872223,-0.9196360111236572,0.6880800127983093,-2.677500009536743,-1.9774999618530276,6.387499809265137
4.588132305332823,0.1966639906167984,-0.9003599882125854,0.6788079738616943,-4.96999979019165,-1.1725000143051147,8.172499656677246
4.6084337757104015,0.175924003124237,-0.8688839673995972,0.668071985244751,-6.702499866485596,-1.837499976158142,8.78499984741211
4.62873524608798,0.1581119894981384,-0.8391159772872925,0.6529439687728882,-8.1899995803833,-3.5350000858306885,8.574999809265137
4.649036716465559,0.158843994140625,-0.815447986125946,0.6375719904899597,-9.625,-4.409999847412109,8.382499694824219
4.669338186843137,0.1625040024518966,-0.794219970703125,0.6209799647331238,-10.640000343322754,-3.8324999809265137,8.574999809265137
4.689639657220716,0.1583559960126876,-0.7695760130882263,0.6029239892959595,-10.552499771118164,-3.132499933242798,8.855000495910645
4.709941127598294,0.1576239913702011,-0.7437120079994202,0.586575984954834,-10.307499885559082,-3.009999990463257,8.960000038146973
4.730242597975873,0.1583559960126876,-0.7295599579811096,0.5777919888496399,-10.779999732971191,-2.992500066757202,8.960000038146973
4.750544068353451,0.1542080044746399,-0.729315996170044,0.5724239945411682,-11.199999809265137,-3.0450000762939453,8.994999885559082
4.77084553873103,0.1490840017795562,-0.7261439561843872,0.5599799752235413,-10.762499809265137,-2.992500066757202,8.8725004196167
4.791147009108609,0.1459119915962219,-0.7173599600791931,0.5492439866065979,-9.414999961853027,-2.9049999713897705,8.662500381469727
4.811448479486187,0.1385920047760009,-0.7146759629249573,0.5475360155105591,-8.34749984741211,-2.922499895095825,8.085000038146973
4.831749949863766,0.1310279965400695,-0.7146759629249573,0.5526599884033203,-8.242500305175781,-3.377500057220459,7.297500133514404
4.852051420241344,0.1310279965400695,-0.7188239693641663,0.5453400015830994,-8.364999771118164,-3.692500114440918,6.720000267028809
4.872352890618923,0.1354199945926666,-0.7207759618759155,0.5428999662399292,-6.789999961853027,-3.1675000190734863,6.037499904632568
4.892654360996501,0.1410319954156875,-0.7263879776000977,0.5577839612960815,-4.269999980926514,-1.9424999952316284,5.022500038146973
4.91295583137408,0.1503039896488189,-0.7344399690628052,0.5687639713287354,-2.6075000762939453,-0.1749999970197677,4.427500247955322
4.9332573017516586,0.1461559981107711,-0.7410280108451843,0.5614439845085144,-1.4350000619888306,1.5225000381469729,3.849999904632568
4.953558772129237,0.1349319964647293,-0.749567985534668,0.5560759902000427,0.2450000047683715,2.2925000190734863,3.1675000190734863
4.973860242506816,0.13298000395298,-0.7500559687614441,0.5675439834594727,2.6075000762939453,2.694999933242798,2.2049999237060547
4.994161712884394,0.1417640000581741,-0.7451759576797485,0.5836479663848877,4.252500057220459,3.587500095367432,0.9100000262260436
5.014463183261973,0.1407880038022995,-0.7551800012588501,0.5880399942398071,4.585000038146973,4.21750020980835,-0.262499988079071
5.034764653639551,0.1356640011072158,-0.7703079581260681,0.5909680128097534,4.707499980926514,3.4124999046325684,-1.1200000047683716
5.05506612401713,0.1385920047760009,-0.7849479913711548,0.59853196144104,5.144999980926514,1.75,-1.8899999856948853
5.0753675943947085,0.1505479961633682,-0.7944639921188354,0.6131719946861267,6.28249979019165,1.1200000047683716,-2.6600000858306885
5.095669064772287,0.1590880006551742,-0.7959280014038086,0.6258599758148193,7.71750020980835,1.6449999809265137,-3.762500047683716
5.115970535149866,0.1644559949636459,-0.7934879660606384,0.6239079833030701,8.78499984741211,1.9075000286102293,-4.8125
5.136272005527444,0.1634799987077713,-0.7971479892730713,0.6182959675788879,8.977499961853027,1.8200000524520876,-5.320000171661377
5.156573475905023,0.1603080034255981,-0.7981239557266235,0.6153680086135864,8.78499984741211,1.9424999952316284,-5.355000019073486
5.176874946282601,0.1507920026779174,-0.8027600049972534,0.6117079854011536,8.925000190734863,3.0975000858306885,-3.990000009536743
5.19717641666018,0.1490840017795562,-0.8017839789390564,0.6148799657821655,9.835000038146973,3.4649999141693115,-3.815000057220459
5.2174778870377585,0.1495719999074936,-0.7956839799880981,0.6165879964828491,10.3774995803833,3.5,-3.849999904632568
5.237779357415337,0.1481079906225204,-0.7961719632148743,0.6224439740180969,9.869999885559082,3.325000047683716,-3.7100000381469727
5.258080827792916,0.152988001704216,-0.8069080114364624,0.6297639608383179,9.135000228881836,2.747499942779541,-3.0975000858306885
5.278382298170494,0.1615279912948608,-0.8139839768409729,0.6402559876441956,8.470000267028809,2.414999961853028,-2.380000114440918
5.298683768548073,0.1639679968357086,-0.8213039636611938,0.6563599705696106,7.857500076293945,2.275000095367432,-1.5575000047683716
5.318985238925651,0.1700679957866668,-0.8400920033454895,0.6734399795532227,6.860000133514404,2.502500057220459,0.1225000023841857
5.33928670930323,0.185928001999855,-0.8705919981002808,0.6863719820976257,5.25,3.237499952316284,2.257499933242798
5.3595881796808085,0.1768999993801117,-0.907435953617096,0.6905199885368347,1.8025000095367432,3.325000047683716,4.322500228881836
5.379889650058387,0.147376000881195,-0.9401319622993468,0.6949119567871094,-2.012500047683716,2.712500095367432,6.545000076293945
5.400191120435966,0.1268799901008606,-0.949404001235962,0.700767993927002,-3.6050000190734863,2.484999895095825,8.225000381469727
5.420492590813544,0.130295991897583,-0.9547719955444336,0.7061359882354736,-5.53000020980835,2.765000104904175,9.7475004196167
5.440794061191123,0.1271239966154098,-0.9679479598999025,0.7051599621772766,-7.840000152587891,2.9049999713897705,10.9375
5.461095531568701,0.1237079948186874,-0.977463960647583,0.6912519931793213,-10.552499771118164,2.782500028610229,11.130000114440918
5.48139700194628,0.1200480014085769,-0.9769759774208068,0.6846640110015869,-13.6850004196167,2.8350000381469727,10.90250015258789
5.5016984723238584,0.115167997777462,-0.9596520066261292,0.6849079728126526,-15.137499809265137,2.5374999046325684,11.182499885559082
5.521999942701437,0.1105320006608963,-0.9376919865608216,0.6863719820976257,-15.24250030517578,2.2925000190734863,12.232500076293944
5.542301413079016,0.0954039990901947,-0.9179279804229736,0.6710000038146973,-15.68000030517578,2.870000123977661,13.737500190734863
5.562602883456594,0.0793000012636184,-0.9049959778785706,0.6453799605369568,-17.46500015258789,3.7799999713897705,15.050000190734863
5.582904353834173,0.0729559957981109,-0.8991400003433228,0.6275680065155029,-19.84499931335449,4.567500114440918,15.487500190734863
5.603205824211751,0.0734440013766288,-0.8915759921073914,0.6219559907913208,-22.049999237060547,5.372499942779541,15.329999923706056
5.62350729458933,0.0885719954967498,-0.8847439885139465,0.6102439761161804,-23.415000915527344,5.862500190734863,15.24250030517578
5.643808764966908,0.0917439982295036,-0.8835240006446838,0.5931639671325684,-24.63999938964844,6.28249979019165,15.890000343322754
5.664110235344487,0.0849120020866394,-0.8932839632034302,0.583404004573822,-26.21500015258789,6.720000267028809,17.727500915527344
5.6844117057220656,0.0717360004782676,-0.8981639742851257,0.5814520120620728,-27.05500030517578,6.545000076293945,19.46000099182129
5.704713176099644,0.0492879971861839,-0.8932839632034302,0.5729119777679443,-27.895000457763672,6.929999828338623,20.457500457763672
5.725014646477223,0.0285479985177516,-0.8854759931564331,0.5599799752235413,-28.087499618530277,6.492499828338623,19.670000076293945
5.745316116854801,0.0204959996044635,-0.8884040117263794,0.5519279837608337,-27.125,5.127500057220459,17.53499984741211
5.76561758723238,0.0280600003898143,-0.8871839642524719,0.550707995891571,-26.4424991607666,4.322500228881836,15.8725004196167
5.785919057609958,0.0702719986438751,-0.8893799781799316,0.500931978225708,-28.2450008392334,7.297500133514404,16.975000381469727
5.806220527987537,0.06734399497509,-0.8742519617080688,0.4821439981460571,-28.82250022888184,9.100000381469728,18.217500686645508
5.8265219983651155,0.0434319972991943,-0.8654679656028748,0.4814119935035705,-29.942501068115234,8.802499771118164,18.09499931335449
5.846823468742694,0.0148839997127652,-0.8618080019950867,0.4838519990444183,-30.975000381469727,7.752500057220459,16.887500762939453
5.867124939120273,-0.0009759999811649,-0.8730319738388062,0.4740919768810272,-30.32749938964844,7.402500152587891,15.977499961853027
5.887426409497851,0.0041479999199509,-0.8915759921073914,0.4682359993457794,-28.787500381469727,7.595000267028809,15.399999618530272
5.90772787987543,0.0100039998069405,-0.8979200124740601,0.4701879918575287,-27.93000030517578,7.980000019073486,15.38249969482422
5.928029350253008,0.0041479999199509,-0.9045079946517944,0.4592079818248749,-27.59749984741211,8.137499809265137,14.980000495910645
5.948330820630587,-0.0112239997833967,-0.9191479682922364,0.4548159837722778,-28.06999969482422,7.927500247955322,13.702500343322754
5.9686322910081655,-0.0258639995008707,-0.9440360069274902,0.4460319876670837,-28.559999465942383,7.28000020980835,12.529999732971191
5.988933761385744,-0.0285479985177516,-0.9425719976425172,0.4531079828739166,-27.28249931335449,6.510000228881836,12.845000267028809
6.009235231763323,-0.0143959997221827,-0.9433040022850036,0.4513999819755554,-28.227500915527344,6.317500114440918,14.279999732971191
6.029536702140901,-0.0124439997598528,-0.9545279741287231,0.4540839791297912,-26.84499931335449,6.28249979019165,13.807499885559082
6.04983817251848,-0.0224479995667934,-0.961847960948944,0.4460319876670837,-24.46500015258789,5.389999866485596,12.25
6.070139642896058,-0.0200079996138811,-0.9513559937477112,0.4350519776344299,-23.467500686645508,4.322500228881836,10.762499809265137
6.090441113273637,-0.0239119995385408,-0.9603840112686156,0.4311479926109314,-26.4424991607666,3.552500009536743,10.167500495910645
6.1107425836512155,-0.0200079996138811,-0.965507984161377,0.4365159869194031,-27.125,3.4825000762939453,9.65999984741211
6.131044054028794,-0.023667998611927,-0.9579439759254456,0.4257799983024597,-25.287500381469727,3.692500114440918,8.4350004196167
6.151345524406373,-0.0265959985554218,-0.961359977722168,0.4060159921646118,-24.46500015258789,3.849999904632568,7.28000020980835
6.171646994783951,-0.0370879992842674,-0.9674599766731262,0.387715995311737,-24.114999771118164,4.164999961853027,5.809999942779541
6.19194846516153,-0.047335997223854,-0.961847960948944,0.3816159963607788,-21.73500061035156,4.042500019073486,3.5
6.212249935539108,-0.0361119993031024,-0.9557479619979858,0.3769800066947937,-20.020000457763672,4.042500019073486,1.0674999952316284
6.232551405916687,-0.0222040005028247,-0.9481839537620544,0.3574599921703338,-19.565000534057617,5.179999828338623,-1.5399999618530271
6.2528528762942654,-0.009515999816358,-0.935983955860138,0.3413559794425964,-19.21500015258789,6.387499809265137,-3.674999952316284
6.273154346671844,-0.0012199999764561,-0.9142679572105408,0.3223240077495575,-18.217500686645508,7.262499809265137,-6.474999904632568
6.293455817049423,0.0051239999011158,-0.8891359567642212,0.3142719864845276,-17.395000457763672,7.175000190734863,-9.274999618530272
6.313757287427001,0.0009759999811649,-0.8657119870185852,0.301827996969223,-16.467500686645508,7.175000190734863,-12.057499885559082
6.33405875780458,0.0112239997833967,-0.8476560115814209,0.2798680067062378,-16.11750030517578,6.264999866485596,-14.454999923706056
6.354360228182158,0.0146399997174739,-0.827892005443573,0.2515639960765838,-14.542500495910645,5.284999847412109,-16.065000534057617
6.374661698559737,0.0243999995291233,-0.8078839778900146,0.2274079918861389,-10.850000381469728,3.1675000190734863,-16.642499923706055
6.394963168937315,0.0214719995856285,-0.7576199769973755,0.2122799903154373,-3.325000047683716,-1.190000057220459,-15.627500534057615
6.415264639314894,0.0080519998446106,-0.748591959476471,0.1988599896430969,0.332500010728836,-1.6449999809265137,-14.315000534057615
6.435566109692473,0.0053679998964071,-0.7376120090484619,0.1666519939899444,5.704999923706055,-2.257499933242798,-12.494999885559082
6.455867580070051,0.0121999997645616,-0.7373679876327515,0.1517679989337921,10.3774995803833,-3.1675000190734863,-9.082500457763672
6.47616905044763,0.0270840004086494,-0.753715991973877,0.1595759987831115,12.28499984741211,-5.232500076293945,-3.6575000286102295
6.496470520825208,0.0075639998540282,-0.7639639973640442,0.1827559918165207,12.460000038146973,-10.657500267028809,2.1700000762939453
6.516771991202787,-0.0153719997033476,-0.8183760046958923,0.196175992488861,10.149999618530272,-17.9375,7.367499828338623
6.537073461580365,-0.0322079993784427,-0.8945040106773376,0.1937360018491745,8.032500267028809,-23.940000534057617,11.6899995803833
6.557374931957944,-0.042943999171257,-0.952575981616974,0.2005679905414581,10.359999656677246,-30.852500915527344,14.262499809265137
6.5776764023355225,-0.0544119998812675,-1.000643968582153,0.210327997803688,16.764999389648438,-39.40999984741211,15.522500038146973
6.597977872713101,-0.0568519979715347,-1.0008879899978638,0.2130119949579239,26.915000915527344,-48.282501220703125,15.697500228881836
6.61827934309068,-0.0541680008172988,-0.9745360016822816,0.1703120023012161,34.73749923706055,-52.9375,17.7450008392334
6.638580813468258,-0.0378200002014637,-0.9472079873085022,0.1041879951953888,34.63249969482422,-53.497501373291016,22.76749992370605
6.658882283845837,-0.0153719997033476,-0.9008479714393616,0.075883999466896,29.68000030517578,-54.54750061035156,28.927499771118164
6.679183754223415,-0.0292799994349479,-0.8317959904670715,0.109555996954441,24.780000686645508,-57.57500076293945,35.61249923706055
6.699485224600994,-0.0527039989829063,-0.8169119954109192,0.1293199956417083,18.479999542236328,-61.3025016784668,44.48500061035156
6.7197866949785725,-0.1339560002088546,-0.852292001247406,0.1307840049266815,11.77750015258789,-63.29750061035156,54.3025016784668
6.740088165356151,-0.2325319945812225,-0.9103639721870422,0.157379999756813,5.792500019073486,-63.13999938964844,62.685001373291016
6.76038963573373,-0.2583959996700287,-1.0396839380264282,0.2471719980239868,-12.845000267028809,-58.310001373291016,59.83250045776367
6.780691106111308,-0.2039839923381805,-1.105563998222351,0.3298879861831665,-28.052499771118164,-53.54999923706055,43.71500015258789
6.800992576488887,-0.1930039972066879,-1.016503930091858,0.3623400032520294,-22.5049991607666,-56.90999984741211,31.342500686645508
6.821294046866465,-0.1849519908428192,-0.9303719997406006,0.3903999924659729,-21.700000762939453,-66.02750396728516,31.167499542236328
6.841595517244044,-0.2144759893417358,-0.8776679635047913,0.3938159942626953,-34.96500015258789,-75.3375015258789,34.5625
6.8618969876216225,-0.1285879909992218,-0.8891359567642212,0.3899119794368744,-50.557498931884766,-77.50749969482422,34.86000061035156
6.882198457999201,0.0112239997833967,-0.9616039991378784,0.3896679878234863,-59.88500213623047,-68.44249725341797,36.067501068115234
6.90249992837678,0.0785679966211319,-1.079211950302124,0.4065040051937103,-60.74250030517578,-57.64500045776367,40.86249923706055
6.922801398754358,0.0531919971108436,-1.148263931274414,0.432123988866806,-48.40499877929688,-54.18000030517578,45.02750015258789
6.943102869131937,-0.0231800004839897,-1.1241079568862915,0.4626239836215973,-34.650001525878906,-58.380001068115234,45.5
6.963404339509515,-0.0527039989829063,-1.0538359880447388,0.468968003988266,-24.780000686645508,-61.54750061035156,40.95000076293945
6.983705809887094,-0.0248879995197057,-0.9620919823646544,0.4218759834766388,-16.747499465942383,-57.62749862670898,33.775001525878906
7.0040072802646725,0.0080519998446106,-0.8086159825325012,0.2937760055065155,-12.914999961853027,-43.067501068115234,32.83000183105469
7.024308750642251,-0.023667998611927,-0.750544011592865,0.2686440050601959,-15.487500190734863,-38.16749954223633,36.92499923706055
7.04461022101983,-0.0717360004782676,-0.7451759576797485,0.2757200002670288,-22.38249969482422,-36.102500915527344,39.47999954223633
7.064911691397408,-0.1158999949693679,-0.7949519753456116,0.2866999804973602,-30.34499931335449,-36.33000183105469,38.20249938964844
7.085213161774987,-0.1625040024518966,-0.8505839705467224,0.2825520038604736,-33.810001373291016,-36.61000061035156,33.057498931884766
7.105514632152565,-0.2054480016231537,-0.8781560063362122,0.268887996673584,-33.3025016784668,-36.15499877929688,26.28499984741211
7.125816102530144,-0.2200879901647567,-0.907435953617096,0.261568009853363,-34.15999984741211,-34.26499938964844,23.030000686645508
7.146117572907722,-0.2191119939088821,-0.9376919865608216,0.2430239915847778,-34.439998626708984,-33.494998931884766,22.45249938964844
7.166419043285301,-0.2122799903154373,-0.9677039980888368,0.224723994731903,-33.21500015258789,-34.807498931884766,22.5575008392334
7.18672051366288,-0.2166720032691955,-0.973315954208374,0.2076440006494522,-31.325000762939453,-36.032501220703125,22.434999465942383
7.207021984040458,-0.2256999909877777,-0.9533079862594604,0.1888559907674789,-30.957500457763672,-37.65999984741211,22.364999771118164
7.227323454418037,-0.1998360008001327,-0.9135359525680542,0.1888559907674789,-33.14500045776367,-37.415000915527344,21.420000076293945
7.247624924795615,-0.1734839975833892,-0.8801079988479614,0.1786080002784729,-36.400001525878906,-34.334999084472656,19.145000457763672
7.267926395173194,-0.1715319901704788,-0.8825479745864868,0.1561599969863891,-40.07500076293945,-30.362499237060547,16.450000762939453
7.288227865550772,-0.1668960005044937,-0.8974319696426392,0.1273680031299591,-40.897499084472656,-26.02250099182129,13.15999984741211
7.308529335928351,-0.1410319954156875,-0.9189040064811708,0.1290760040283203,-40.14500045776367,-19.670000076293945,9.817500114440918
7.3288308063059295,-0.1371279954910278,-0.9381799697875975,0.1293199956417083,-39.39250183105469,-11.637499809265137,7.577499866485596
7.349132276683508,-0.1498159915208816,-0.9711199998855592,0.1219999939203262,-39.00749969482422,-5.284999847412109,6.860000133514404
7.369433747061087,-0.1603080034255981,-1.012112021446228,0.109555996954441,-36.13750076293945,-1.6974999904632568,6.300000190734863
7.389735217438665,-0.1578679978847503,-1.0099159479141235,0.1041879951953888,-32.724998474121094,2.484999895095825,6.002500057220459
7.410036687816244,-0.1546960026025772,-1.0008879899978638,0.0854000002145767,-30.22249984741211,8.119999885559082,5.949999809265137
7.430338158193822,-0.1637239903211593,-1.0116239786148071,0.0732000023126602,-27.15999984741211,12.355000495910645,7.682499885559082
7.450639628571401,-0.1307840049266815,-1.0111359357833862,0.0956479981541633,-22.90749931335449,14.875,9.22249984741211
7.4709410989489795,-0.1503039896488189,-1.0296800136566162,0.1141919940710067,-22.34749984741211,19.11000061035156,12.197500228881836
7.491242569326558,-0.1668960005044937,-1.0504199266433716,0.1112639978528022,-21.875,21.21000099182129,14.9975004196167
7.511544039704137,-0.1742160022258758,-1.0721359252929688,0.0885719954967498,-20.545000076293945,19.82749938964844,17.832500457763672
7.531845510081715,-0.1886119991540908,-1.0584720373153689,0.1029679998755455,-21.332500457763672,16.1875,21.82250022888184
7.552146980459294,-0.1854400038719177,-1.0504199266433716,0.1312720030546188,-23.239999771118164,14.279999732971191,24.6924991607666
7.572448450836872,-0.1456679999828338,-1.0299240350723269,0.143227994441986,-22.61000061035156,15.522500038146973,23.59000015258789
7.592749921214451,-0.1317600011825561,-0.986735999584198,0.1215119957923889,-23.030000686645508,17.13249969482422,20.299999237060547
7.6130513915920295,-0.1803160011768341,-1.006011962890625,0.0863759964704513,-20.877500534057617,15.68000030517578,16.1875
7.633352861969608,-0.2237479984760284,-1.017967939376831,0.0773480013012886,-13.335000038146973,15.3125,16.764999389648438
7.653654332347187,-0.2535159885883331,-0.9984479546546936,0.0729559957981109,-7.647500038146973,15.557499885559082,17.27250099182129
7.673955802724765,-0.2461960017681121,-0.9762439727783204,0.0573399998247623,-8.78499984741211,15.3125,17.219999313354492
7.694257273102344,-0.2425359934568405,-0.9723399877548218,0.033671997487545,-12.512499809265137,13.859999656677246,15.225000381469728
7.714558743479922,-0.2366800010204315,-0.9786840081214904,0.0126879997551441,-13.982500076293944,12.827500343322754,12.949999809265137
7.734860213857501,-0.2505879998207092,-0.977463960647583,0.0058559998869895,-11.130000114440918,11.970000267028809,10.954999923706056
7.7551616842350795,-0.2613239884376526,-0.9925919771194458,-0.0075639998540282,-8.942500114440918,10.954999923706056,10.149999618530272
7.775463154612658,-0.2991439998149872,-0.9947879910469056,-0.0034159999340772,-6.195000171661377,9.327500343322754,10.307499885559082
7.795764624990237,-0.2791360020637512,-0.9938119649887084,-0.0041479999199509,-4.164999961853027,7.927500247955322,9.029999732971191
7.816066095367815,-0.2776719927787781,-0.987223982810974,-0.0009759999811649,-1.8899999856948853,6.965000152587891,6.177500247955322
7.836367565745394,-0.2830399870872497,-0.9791719913482666,-0.0222040005028247,-2.362499952316284,6.684999942779541,3.7100000381469727
7.856669036122972,-0.297679990530014,-0.9723399877548218,-0.0317199975252151,-1.9075000286102293,4.462500095367432,2.1700000762939453
7.876970506500551,-0.293531984090805,-0.9694119691848756,-0.0378200002014637,-1.5924999713897705,2.134999990463257,1.190000057220459
7.897271976878129,-0.2786479890346527,-0.9576999545097352,-0.0544119998812675,-1.5575000047683716,2.257499933242798,0.5600000023841858
7.917573447255708,-0.2898719906806946,-0.9403759837150574,-0.0844239965081214,-3.307500123977661,3.5174999237060547,0.9975000023841858
7.937874917633287,-0.3150039911270141,-0.9201239943504332,-0.0961359962821006,-7.927500247955322,3.920000076293945,2.694999933242798
7.958176388010865,-0.3455039858818054,-0.903775990009308,-0.0968680009245872,-12.61750030517578,4.077499866485596,4.409999847412109
7.978477858388444,-0.3613640069961548,-0.9071919918060304,-0.0854000002145767,-14.40250015258789,4.252500057220459,5.232500076293945
7.998779328766022,-0.3662439882755279,-0.9142679572105408,-0.0797879993915557,-13.177499771118164,5.057499885559082,5.267499923706055
8.019080799143602,-0.3628279864788055,-0.9020679593086244,-0.0790559947490692,-10.605000495910645,7.034999847412109,5.862500190734863
8.03938226952118,-0.366487979888916,-0.945743978023529,-0.0800319984555244,-6.667500019073486,9.99250030517578,8.452500343322754
8.059683739898759,-0.3608759939670563,-0.9318360090255736,-0.0993079990148544,-5.144999980926514,10.289999961853027,5.40749979019165
8.079985210276337,-0.3508719801902771,-0.9391559958457948,-0.1112639978528022,-3.954999923706055,7.699999809265137,4.65500020980835
8.100286680653916,-0.3457480072975158,-0.9393999576568604,-0.1212679967284202,-4.690000057220459,4.497499942779541,4.147500038146973
8.120588151031495,-0.3481879830360412,-0.9335439801216124,-0.1217559948563575,-5.880000114440918,2.6600000858306885,3.4124999046325684
8.140889621409073,-0.3479439914226532,-0.9284200072288512,-0.1180959939956665,-6.369999885559082,2.6075000762939453,2.677500009536743
8.161191091786652,-0.3511160016059875,-0.9315919876098632,-0.1205359995365142,-7.052500247955322,3.884999990463257,1.8899999856948853
8.18149256216423,-0.3567279875278473,-0.935983955860138,-0.1254159957170486,-6.107500076293945,5.144999980926514,0.9975000023841858
8.201794032541809,-0.3628279864788055,-0.93232399225235,-0.1198039948940277,-5.215000152587891,5.635000228881836,0.7699999809265137
8.222095502919387,-0.3635599911212921,-0.9318360090255736,-0.1119959950447082,-4.724999904632568,3.954999923706055,1.1725000143051147
8.242396973296966,-0.3667320013046264,-0.936959981918335,-0.1149239987134933,-3.9375,2.484999895095825,1.4524999856948853
8.262698443674545,-0.3623400032520294,-0.9357399940490724,-0.1100439950823783,-2.2049999237060547,1.1200000047683716,1.0850000381469729
8.282999914052123,-0.3577039837837219,-0.9403759837150574,-0.1024799942970275,-0.0874999985098838,0.2800000011920929,0.0350000001490116
8.303301384429702,-0.3459919989109039,-0.941107988357544,-0.0907679945230484,1.9424999952316284,-0.4025000035762787,-1.3300000429153442
8.32360285480728,-0.3489199876785278,-0.9479399919509888,-0.0924759954214096,3.3949999809265137,-1.0674999952316284,-2.2925000190734863
8.343904325184859,-0.3598999977111816,-0.9603840112686156,-0.0914999991655349,4.724999904632568,-2.922499895095825,-2.887500047683716
8.364205795562437,-0.3574599921703338,-0.9755119681358336,-0.0780799984931945,6.072500228881836,-5.722499847412109,-3.9375
8.384507265940016,-0.3472119867801666,-0.9808799624443054,-0.0639280006289482,7.945000171661377,-8.452500343322754,-5.775000095367432
8.404808736317595,-0.3489199876785278,-0.9796599745750428,-0.0553879998624324,10.3774995803833,-10.885000228881836,-7.525000095367432
8.425110206695173,-0.3459919989109039,-0.9864919781684875,-0.0451399981975555,11.480000495910645,-12.827500343322754,-8.452500343322754
8.445411677072752,-0.3245199918746948,-1.0016199350357056,-0.0295239984989166,12.8100004196167,-13.369999885559082,-9.65999984741211
8.46571314745033,-0.305976003408432,-1.0155279636383057,-0.0158599987626075,15.207500457763672,-12.267499923706056,-11.88249969482422
8.486014617827909,-0.2752319872379303,-1.0250439643859863,0.0029279999434947,17.149999618530273,-10.3774995803833,-14.962499618530272
8.506316088205487,-0.2405840009450912,-1.0389519929885864,0.0261080004274845,19.232500076293945,-7.227499961853027,-18.82999992370605
8.526617558583066,-0.2213079929351806,-1.0391960144042969,0.0417240001261234,24.07999992370605,-4.130000114440918,-23.415000915527344
8.546919028960644,-0.2315559983253479,-1.0374879837036133,0.0324519984424114,30.57250022888184,-3.622499942779541,-28.80500030517578
8.567220499338223,-0.2330199927091598,-1.047003984451294,0.0356239974498748,36.33000183105469,-5.284999847412109,-35.560001373291016
8.587521969715802,-0.2398519963026046,-1.04066002368927,0.0514839999377727,42.122501373291016,-5.775000095367432,-41.47499847412109
8.60782344009338,-0.244731992483139,-1.0196759700775146,0.0639280006289482,44.32749938964844,-4.112500190734863,-44.08250045776367
8.628124910470959,-0.2366800010204315,-1.0082080364227295,0.06734399497509,43.959999084472656,-1.3300000429153442,-44.53749847412109
8.648426380848537,-0.2154520004987716,-0.9928359985351562,0.0924759954214096,44.95750045776367,0.1400000005960464,-43.102500915527344
8.668727851226116,-0.2037400007247924,-0.9840520024299622,0.1139479950070381,48.59749984741211,-0.4900000095367431,-41.47499847412109
8.689029321603694,-0.1781200021505355,-0.9791719913482666,0.1115079969167709,53.4275016784668,-3.4649999141693115,-39.20000076293945
8.709330791981273,-0.181779995560646,-0.9847840070724488,0.1034559980034828,54.897499084472656,-6.545000076293945,-35.665000915527344
8.729632262358852,-0.1612839996814727,-0.9869799613952636,0.1163880005478859,58.432498931884766,-5.985000133514404,-35.0
8.74993373273643,-0.1324919909238815,-0.96453195810318,0.1241960003972053,59.04500198364258,-3.569999933242798,-33.72249984741211
8.770235203114009,-0.115167997777462,-0.9545279741287231,0.1276119947433471,51.69499969482422,-2.345000028610229,-31.79750061035156
8.790536673491587,-0.1200480014085769,-0.94159597158432,0.1298079937696457,45.1150016784668,-1.2424999475479126,-29.854999542236328
8.810838143869166,-0.1066280007362365,-0.9179279804229736,0.1307840049266815,42.962501525878906,-0.5074999928474426,-27.93000030517578
8.831139614246744,-0.0736880004405975,-0.904263973236084,0.1495719999074936,33.6875,4.777500152587891,-23.55500030517578
8.851441084624323,-0.1071159988641738,-0.9518439769744872,0.1605519950389862,26.31999969482422,5.25,-19.65250015258789
8.871742555001902,-0.1315159946680069,-0.9791719913482666,0.1900759935379028,27.94750022888184,6.860000133514404,-20.002500534057617
8.89204402537948,-0.1280999928712844,-0.9398880004882812,0.1798280030488968,26.774999618530277,4.900000095367432,-21.559999465942383
8.912345495757059,-0.0922319963574409,-0.9979599714279176,0.1937360018491745,24.2549991607666,3.815000057220459,-20.57999992370605
8.932646966134637,-0.0963799953460693,-0.9889319539070128,0.2008119970560073,30.362499237060547,9.5024995803833,-16.83500099182129
8.952948436512216,-0.0936959981918335,-0.9584319591522216,0.1954440027475357,35.01750183105469,10.779999732971191,-15.015000343322754
8.973249906889794,-0.0941839963197708,-0.9347639679908752,0.1771439909934997,34.790000915527344,12.21500015258789,-14.227499961853027
8.993551377267373,-0.10589599609375,-0.9786840081214904,0.1683599948883056,32.900001525878906,16.957500457763672,-10.86750030517578
9.013852847644952,-0.0963799953460693,-0.9977160096168518,0.1866599917411804,35.997501373291016,19.4424991607666,-10.359999656677246
9.03415431802253,-0.0844239965081214,-0.9606279730796814,0.1829999983310699,41.790000915527344,23.292499542236328,-11.567500114440918
9.054455788400109,-0.0956479981541633,-0.9606279730796814,0.1876360028982162,42.560001373291016,27.440000534057617,-10.587499618530272
9.074757258777687,-0.0968680009245872,-0.9350079894065856,0.2391199916601181,42.61249923706055,27.70249938964844,-9.817500114440918
9.095058729155266,-0.0971119999885559,-0.9677039980888368,0.2962159812450409,39.147499084472656,30.13500022888184,-10.6225004196167
9.115360199532844,-0.1007720008492469,-0.9860039949417114,0.3052439987659454,38.92000198364258,31.815000534057617,-13.702500343322754
9.135661669910423,-0.0246439985930919,-0.9686799645423888,0.284991979598999,20.825000762939453,5.880000114440918,-13.789999961853027
9.155963140288002,-0.0544119998812675,-0.9635559916496276,0.3267160058021545,30.625,32.44499969482422,-15.4350004196167
9.17626461066558,-0.0634399950504303,-0.9006040096282959,0.3142719864845276,32.77750015258789,38.657501220703125,-15.802499771118164
9.196566081043159,-0.0619760006666183,-0.8747400045394897,0.333547979593277,25.30500030517578,38.56999969482422,-14.385000228881836
9.216867551420737,-0.0710039958357811,-0.8276479840278625,0.3394039869308471,19.372499465942383,44.1875,-14.454999923706056
9.237169021798316,-0.1249279975891113,-0.8342359662055969,0.3281799852848053,12.057499885559082,52.272499084472656,-13.142499923706056
9.257470492175894,-0.1061399951577186,-0.9076799750328064,0.3433080017566681,7.157500267028809,64.75,-7.822500228881836
9.277771962553473,-0.1163880005478859,-0.8698599934577942,0.363315999507904,9.887499809265137,67.69000244140625,-6.650000095367432
9.298073432931051,-0.1295640021562576,-0.8949919939041138,0.3520919978618622,9.3100004196167,72.01249694824219,-7.822500228881836
9.31837490330863,-0.1341999918222427,-0.9057279825210572,0.3459919989109039,7.017499923706055,67.09500122070312,-12.460000038146973
9.338676373686209,-0.1278560012578964,-0.918172001838684,0.3667320013046264,5.09250020980835,62.10750198364258,-15.329999923706056
9.358977844063787,-0.1115079969167709,-0.9210999608039856,0.4018679857254028,5.827499866485596,61.845001220703125,-18.462499618530277
9.379279314441366,-0.1085800006985664,-0.9262239933013916,0.4472520053386688,8.119999885559082,61.19750213623047,-20.94750022888184
9.399580784818944,-0.1076039969921112,-0.8791319727897644,0.4748239815235138,9.1875,60.8125,-21.979999542236328
9.419882255196523,-0.1154119968414306,-0.8942599892616272,0.4811680018901825,5.704999923706055,60.44499969482422,-20.895000457763672
9.440183725574101,-0.1034559980034828,-0.8566839694976807,0.4882439970970154,9.292500495910645,61.022499084472656,-24.21999931335449
9.46048519595168,-0.0861319974064827,-0.8173999786376953,0.4831199944019317,9.414999961853027,60.23500061035156,-29.81999969482422
9.480786666329259,-0.0771040022373199,-0.7637199759483337,0.4621360003948211,4.934999942779541,60.11249923706055,-34.38750076293945
9.501088136706837,-0.1090679988265037,-0.7903159856796265,0.452131986618042,1.4350000619888306,58.1875,-38.9375
9.521389607084416,-0.1478639990091323,-0.8657119870185852,0.4431039988994598,-2.9749999046325684,53.8125,-42.157501220703125
9.541691077461994,-0.1561599969863891,-0.9747799634933472,0.4218759834766388,-5.09250020980835,50.3125,-44.834999084472656
9.561992547839573,-0.119559995830059,-1.138260006904602,0.4172399938106537,-1.0325000286102295,50.977500915527344,-45.46500015258789
9.582294018217151,-0.0966240018606185,-1.285148024559021,0.3650240004062652,7.507500171661377,55.282501220703125,-38.290000915527344
9.60259548859473,-0.1656759977340698,-1.1826679706573486,0.264739990234375,22.46999931335449,53.30500030517578,-30.747499465942383
9.622896958972309,-0.1878799945116043,-0.9764879941940308,0.2439999878406524,32.217498779296875,45.46500015258789,-30.415000915527344
9.643198429349887,-0.1503039896488189,-0.8586359620094299,0.2535159885883331,32.900001525878906,44.65999984741211,-35.192501068115234
9.663499899727466,-0.1097999960184097,-0.8652240037918091,0.2134999930858612,29.61000061035156,44.04750061035156,-43.3125
9.683801370105044,-0.052947998046875,-0.9169519543647766,0.1864160001277923,23.537500381469727,35.314998626708984,-51.432498931884766
9.704102840482623,0.0109799997881054,-0.9496479630470276,0.2012999951839447,14.699999809265137,29.69750022888184,-52.86750030517578
9.724404310860201,0.0219599995762109,-0.9947879910469056,0.2432679980993271,4.235000133514404,28.89249992370605,-50.20750045776367
9.74470578123778,0.0102479998022317,-0.9591639637947084,0.2874319851398468,2.380000114440918,29.03249931335449,-48.1775016784668
9.765007251615359,0.0041479999199509,-0.8966999650001526,0.289139986038208,-0.9800000190734864,26.4424991607666,-43.032501220703125
9.785308721992937,0.028303999453783,-0.8996279835700989,0.3257399797439575,-3.1675000190734863,17.3075008392334,-33.1974983215332
9.805610192370516,0.0631959959864616,-0.8886479735374451,0.4196799993515014,-6.667500019073486,17.6924991607666,-24.01000022888184
9.825911662748094,0.071492001414299,-0.9252479672431946,0.5194759964942932,-6.772500038146973,12.460000038146973,-16.11750030517578
9.846213133125673,0.0927200019359588,-0.9667279720306396,0.497759997844696,-4.829999923706055,4.269999980926514,-13.2475004196167
9.866514603503251,0.1798280030488968,-0.9428159594535828,0.3745400011539459,-1.7675000429153442,2.922499895095825,-13.2475004196167
9.88681607388083,0.2840159833431244,-0.8661999702453613,0.269131988286972,4.585000038146973,10.13249969482422,-13.6850004196167
9.907117544258409,0.4052839875221252,-0.8076399564743042,0.1893439888954162,1.225000023841858,24.815000534057617,-9.782500267028809
9.927419014635987,0.3323279917240143,-0.8737639784812927,0.2000799924135208,-10.045000076293944,48.772499084472656,-2.4674999713897705
9.947720485013566,0.0046359999105334,-1.138260006904602,0.2610799968242645,-23.20499992370605,54.897499084472656,-2.012500047683716
9.968021955391144,-0.2442439943552017,-1.0762839317321775,0.4531079828739166,-22.137500762939453,34.49250030517578,-18.88249969482422
9.988323425768723,-0.2766959965229034,-0.9628239870071412,0.4970279932022095,-18.77750015258789,14.087499618530272,-30.747499465942383
10.008624896146301,-0.0880839973688125,-0.8664439916610718,0.2986559867858886,-14.90999984741211,4.445000171661377,-30.940000534057617
10.02892636652388,0.0561200007796287,-0.8220359683036804,0.143227994441986,-18.32250022888184,12.75749969482422,-19.565000534057617
10.049227836901458,0.0695400014519691,-0.9386679530143738,0.3120760023593902,-24.65749931335449,14.752500534057615,1.5750000476837158
10.069529307279037,-0.0185439996421337,-1.1048319339752195,0.3940599858760834,-17.56999969482422,3.569999933242798,2.0824999809265137
10.089830777656616,-0.0505079999566078,-1.0899479389190674,0.387472003698349,-3.622499942779541,-2.3975000381469727,-4.304999828338623
10.110132248034194,-0.0387960001826286,-0.9864919781684875,0.3340359926223755,2.5374999046325684,-2.450000047683716,-7.945000171661377
10.130433718411773,0.003171999938786,-0.9376919865608216,0.3325719833374023,0.8224999904632568,-0.2975000143051147,-6.072500228881836
10.150735188789351,0.0092719998210668,-0.9437919855117798,0.3423320055007934,-1.5049999952316284,1.3650000095367432,-2.2225000858306885
10.17103665916693,0.0412359982728958,-0.9215880036354064,0.3079279959201813,-0.5074999928474426,3.2725000381469727,0.3675000071525574
10.191338129544508,0.0854000002145767,-0.9306159615516664,0.2971920073032379,-2.5374999046325684,4.865000247955322,2.309999942779541
10.211639599922087,0.1024799942970275,-0.9550159573554992,0.3233000040054321,-4.742499828338623,4.445000171661377,-0.332500010728836
10.231941070299666,0.0702719986438751,-0.9555040001869202,0.3340359926223755,-3.0450000762939453,4.130000114440918,-4.269999980926514
10.252242540677244,0.0151279997080564,-0.9315919876098632,0.3479439914226532,0.4550000131130218,4.96999979019165,-4.795000076293945
10.272544011054823,-0.0231800004839897,-0.9115839600563048,0.3586799800395965,0.0700000002980232,4.550000190734863,-2.2225000858306885
10.292845481432401,-0.0212280005216598,-0.9149999618530272,0.3423320055007934,-3.5,2.887500047683716,0.6299999952316284
10.31314695180998,0.0192760005593299,-0.9279319643974304,0.3203719854354858,-7.315000057220459,0.4375,1.9075000286102293
10.333448422187558,0.0407480001449584,-0.9518439769744872,0.3132959902286529,-9.414999961853027,-0.9100000262260436,1.5575000047683716
10.353749892565137,0.047580000013113,-0.9725840091705322,0.3342799842357635,-8.067500114440918,-1.6100000143051147,1.0149999856948853
10.374051362942716,0.0334279984235763,-0.9718520045280457,0.3467240035533905,-4.21750020980835,-2.817500114440918,1.0325000286102295
10.394352833320294,0.020983999595046,-0.961847960948944,0.3413559794425964,-1.0674999952316284,-4.059999942779541,1.5924999713897705
10.414654303697873,0.023667998611927,-0.9564799666404724,0.3306199908256531,-0.3849999904632568,-4.567500114440918,2.134999990463257
10.434955774075451,0.0392839983105659,-0.9584319591522216,0.3230559825897217,-1.0674999952316284,-4.795000076293945,1.8725000619888303
10.45525724445303,0.0492879971861839,-0.9576999545097352,0.3225679993629455,-1.5575000047683716,-4.8125,1.1200000047683716
10.475558714830608,0.0531919971108436,-0.952575981616974,0.3269599974155426,-0.9449999928474426,-4.304999828338623,0.8400000333786011
10.495860185208187,0.0539239980280399,-0.9518439769744872,0.3320840001106262,0.4550000131130218,-4.025000095367432,0.9800000190734864
10.516161655585766,0.057583998888731,-0.9481839537620544,0.3384279906749725,1.7675000429153442,-4.375,1.2424999475479126
10.536463125963344,0.0570959970355033,-0.9520879983901978,0.334524005651474,2.2925000190734863,-4.602499961853027,1.1375000476837158
10.556764596340923,0.0563639998435974,-0.9501360058784484,0.3284240067005157,2.572499990463257,-4.199999809265137,0.5950000286102295
10.577066066718501,0.0512399971485137,-0.952575981616974,0.3269599974155426,2.1524999141693115,-3.377500057220459,0.1924999952316284
10.59736753709608,0.0524599999189376,-0.9564799666404724,0.326227992773056,1.8200000524520876,-2.502500057220459,-0.1924999952316284
10.617669007473658,0.0563639998435974,-0.958675980567932,0.3233000040054321,2.2225000858306885,-1.5924999713897705,-0.5074999928474426
10.637970477851237,0.0524599999189376,-0.9601399898529052,0.3281799852848053,2.9049999713897705,-1.2949999570846558,-0.5950000286102295
10.658271948228816,0.0409919992089271,-0.9674599766731262,0.3245199918746948,5.389999866485596,-0.9100000262260436,-1.784999966621399
10.678573418606394,0.0409919992089271,-0.9603840112686156,0.330375999212265,5.914999961853027,-1.0499999523162842,-1.75
10.698874888983973,0.0370879992842674,-0.9528200030326844,0.3313519954681396,6.352499961853027,-1.277500033378601,-1.5049999952316284
10.719176359361551,0.0370879992842674,-0.9454999566078186,0.3320840001106262,6.947500228881836,-1.5225000381469729,-1.4175000190734863
10.73947782973913,0.0424560010433197,-0.9459879994392396,0.3291559815406799,7.559999942779541,-1.837499976158142,-1.190000057220459
10.759779300116708,0.0497759990394115,-0.9501360058784484,0.3340359926223755,8.067500114440918,-2.134999990463257,-0.7175000309944153
10.780080770494287,0.0497759990394115,-0.948915958404541,0.3437959849834442,8.260000228881836,-2.1524999141693115,-0.7175000309944153
10.800382240871865,0.0505079999566078,-0.9433040022850036,0.3425759971141815,8.505000114440918,-2.3975000381469727,-1.1200000047683716
10.820683711249444,0.0527039989829063,-0.9354959726333618,0.3423320055007934,8.225000381469727,-2.257499933242798,-1.1024999618530271
10.840985181627023,0.0578279979526996,-0.935983955860138,0.3440400063991546,7.525000095367432,-1.7324999570846558,-0.8400000333786011
10.861286652004601,0.0573399998247623,-0.944279968738556,0.3437959849834442,7.227499961853027,-0.5950000286102295,-1.0325000286102295
10.88158812238218,0.0541680008172988,-0.941107988357544,0.3398919999599457,7.542500019073486,-0.0350000001490116,-1.7675000429153442
10.901889592759758,0.0548999980092048,-0.9308599829673768,0.3357439935207367,7.840000152587891,0.4025000035762787,-2.345000028610229
10.922191063137337,0.0453839972615242,-0.9315919876098632,0.3396480083465576,7.787499904632568,0.7875000238418579,-2.3975000381469727
10.942492533514915,0.0397720001637935,-0.944767951965332,0.34647998213768,7.227499961853027,0.8924999833106995,-2.065000057220459
10.962794003892494,0.0351359993219375,-0.9506239891052246,0.3501400053501129,6.947500228881836,0.962499976158142,-1.8200000524520876
10.983095474270073,0.0368440002202987,-0.9398880004882812,0.3479439914226532,7.4375,1.4350000619888306,-2.0999999046325684
11.003396944647651,0.0439199991524219,-0.936959981918335,0.354775995016098,7.332499980926514,1.6974999904632568,-2.2925000190734863
11.02369841502523,0.0444080010056495,-0.9350079894065856,0.3618519902229309,6.545000076293945,1.4350000619888306,-2.047499895095825
11.043999885402808,0.0490439981222152,-0.924515962600708,0.3691720068454742,5.792500019073486,1.1375000476837158,-1.7324999570846558
11.064301355780387,0.0527039989829063,-0.9225639700889589,0.3725879788398742,5.127500057220459,1.0850000381469729,-1.3300000429153442
11.084602826157965,0.052216000854969,-0.9252479672431946,0.3745400011539459,4.567500114440918,0.875,-1.1200000047683716
11.104904296535544,0.0478239990770816,-0.9264679551124572,0.3730759918689728,3.920000076293945,0.3149999976158142,-0.6474999785423279
11.125205766913123,0.0461159981787204,-0.9218319654464722,0.3755159974098205,4.007500171661377,-0.2975000143051147,-0.0700000002980232
11.145507237290701,0.0485559999942779,-0.9164639711380004,0.3896679878234863,3.867500066757202,-0.5074999928474426,-0.0874999985098838
11.16580870766828,0.062219999730587,-0.9062159657478333,0.399427980184555,2.9574999809265137,-0.3149999976158142,-0.262499988079071
11.186110178045858,0.0697840005159378,-0.9088999629020692,0.3947919905185699,1.5575000047683716,-0.2275000065565109,0.3675000071525574
11.206411648423437,0.0619760006666183,-0.9176839590072632,0.3964999914169311,0.4200000166893005,-0.4724999964237213,1.1725000143051147
11.226713118801015,0.0487999990582466,-0.9264679551124572,0.403575986623764,-1.0149999856948853,-0.7175000309944153,1.277500033378601
11.247014589178594,0.042943999171257,-0.9223200082778932,0.3940599858760834,-1.7324999570846558,-1.6449999809265137,0.8924999833106995
11.267316059556173,0.0458719991147518,-0.9386679530143738,0.3735640048980713,-1.5049999952316284,-1.0850000381469729,-0.0874999985098838
11.287617529933751,0.0514839999377727,-0.9469639658927916,0.3757599890232086,-1.4175000190734863,-0.6474999785423279,-0.7699999809265137
11.30791900031133,0.0485559999942779,-0.9318360090255736,0.3838119804859161,-1.0325000286102295,-0.5600000023841858,-0.9975000023841858
11.328220470688908,0.0483120009303092,-0.9223200082778932,0.3818599879741668,-1.680000066757202,-0.7175000309944153,-0.612500011920929
11.348521941066487,0.05197199806571,-0.9189040064811708,0.3713679909706116,-1.8025000095367432,-0.3499999940395355,-0.2450000047683715
11.368823411444065,0.0478239990770816,-0.9242720007896424,0.363315999507904,-1.5225000381469729,-0.1225000023841857,0.0350000001490116
11.389124881821644,0.0505079999566078,-0.9250040054321288,0.3652679920196533,-0.8224999904632568,-0.1225000023841857,0.1924999952316284
11.409426352199223,0.0527039989829063,-0.9237839579582214,0.3684400022029876,-0.1050000041723251,0.4900000095367431,0.4724999964237213
11.429727822576801,0.052947998046875,-0.9264679551124572,0.3703919947147369,0.5600000023841858,1.277500033378601,0.612500011920929
11.45002929295438,0.0495319999754428,-0.9362279772758484,0.3777119815349579,0.5600000023841858,2.1524999141693115,0.4025000035762787
11.470330763331958,0.0485559999942779,-0.9423279762268066,0.3789319992065429,0.7175000309944153,2.572499990463257,-0.1749999970197677
11.490632233709537,0.0451399981975555,-0.9403759837150574,0.3764919936656952,1.2949999570846558,2.555000066757202,-0.875
11.510933704087115,0.0402599982917308,-0.9303719997406006,0.3735640048980713,1.75,1.9424999952316284,-1.3125
11.531235174464694,0.0307439994066953,-0.928663969039917,0.3757599890232086,1.8200000524520876,1.3650000095367432,-1.1375000476837158
11.551536644842272,0.028303999453783,-0.9306159615516664,0.3767359852790832,1.715000033378601,0.9275000095367432,-0.875
11.571838115219851,0.0375759974122047,-0.9313479661941528,0.3784439861774444,1.4350000619888306,0.3675000071525574,-0.4724999964237213
11.59213958559743,0.0356239974498748,-0.938423991203308,0.370635986328125,1.225000023841858,-0.3499999940395355,0.2975000143051147
11.612441055975008,0.0319640003144741,-0.928663969039917,0.3655119836330414,1.627500057220459,-1.1200000047683716,0.7175000309944153
11.632742526352587,0.0353799983859062,-0.9184159636497498,0.3677079975605011,1.3825000524520874,-1.190000057220459,1.0149999856948853
11.653043996730165,0.0375759974122047,-0.9191479682922364,0.3628279864788055,0.2800000011920929,-0.9800000190734864,1.4350000619888306
11.673345467107744,0.0412359982728958,-0.924515962600708,0.3703919947147369,-1.4700000286102295,-1.4350000619888306,2.065000057220459
11.693646937485322,0.0366000011563301,-0.935252010822296,0.3755159974098205,-2.6075000762939453,-1.9075000286102293,2.5899999141693115
11.713948407862901,0.0361119993031024,-0.9303719997406006,0.3801519870758056,-2.5199999809265137,-2.6424999237060547,2.1875
11.73424987824048,0.0427000001072883,-0.9267119765281676,0.3745400011539459,-2.3975000381469727,-2.9574999809265137,1.399999976158142
11.754551348618058,0.0505079999566078,-0.9335439801216124,0.3711239993572235,-2.432500123977661,-3.220000028610229,0.7175000309944153
11.774852818995637,0.0634399950504303,-0.944767951965332,0.3638039827346802,-2.940000057220459,-4.567500114440918,0.1225000023841857
11.795154289373215,0.0675880014896392,-0.9452559947967528,0.3555079996585846,-3.202500104904175,-5.932499885559082,-0.5074999928474426
11.815455759750794,0.0702719986438751,-0.9428159594535828,0.3442839980125427,-2.9049999713897705,-6.684999942779541,-1.1549999713897705
11.835757230128372,0.0734440013766288,-0.9342759847640992,0.3413559794425964,-2.5199999809265137,-6.824999809265137,-1.5225000381469729
11.856058700505951,0.0710039958357811,-0.9433040022850036,0.3376959860324859,-2.940000057220459,-6.457499980926514,-1.5225000381469729
11.87636017088353,0.066611997783184,-0.9459879994392396,0.3337920010089874,-3.954999923706055,-9.852499961853027,-1.0499999523162842
11.896661641261108,0.0668559968471527,-0.9330559968948364,0.3233000040054321,-4.602499961853027,-11.427499771118164,-1.2949999570846558
11.916963111638687,0.0661239996552467,-0.9523319602012634,0.3174439966678619,-6.28249979019165,-13.0024995803833,-0.4375
11.937264582016265,0.0685639977455139,-0.95306396484375,0.3164680004119873,-5.355000019073486,-15.050000190734863,0.3149999976158142
11.957566052393844,0.0797879993915557,-0.9257360100746156,0.3276920020580292,-4.724999904632568,-17.56999969482422,2.1524999141693115
11.977867522771422,0.0832040011882782,-0.9237839579582214,0.3437959849834442,-6.684999942779541,-17.5,4.252500057220459
11.998168993149001,0.0966240018606185,-0.9393999576568604,0.350383996963501,-8.680000305175781,-16.764999389648438,5.179999828338623
12.01847046352658,0.1129719987511634,-0.973315954208374,0.3384279906749725,-9.65999984741211,-15.802499771118164,5.267499923706055
12.038771933904158,0.13298000395298,-0.9777079820632936,0.3213479816913605,-7.227499961853027,-16.292499542236328,3.920000076293945
12.059073404281737,0.1507920026779174,-0.9503799676895142,0.3328160047531128,-3.972500085830689,-16.065000534057617,2.2049999237060547
12.079374874659315,0.147376000881195,-0.9513559937477112,0.3494080007076263,-3.447499990463257,-14.03499984741211,1.7324999570846558
12.099676345036894,0.1273680031299591,-0.9169519543647766,0.3659999966621399,-2.694999933242798,-11.147500038146973,2.1875
12.119977815414472,0.0936959981918335,-0.9230519533157348,0.3508719801902771,-2.2049999237060547,-9.5024995803833,5.284999847412109
12.140279285792051,0.0797879993915557,-0.9357399940490724,0.3508719801902771,2.992500066757202,-12.600000381469728,9.55500030517578
12.16058075616963,0.0685639977455139,-0.9381799697875975,0.3479439914226532,9.380000114440918,-15.225000381469728,13.440000534057615
12.180882226547208,0.071492001414299,-0.944279968738556,0.334767997264862,14.332500457763672,-17.2549991607666,17.360000610351562
12.201183696924787,0.0990639999508857,-0.9374479651451112,0.3308639824390411,17.202499389648438,-18.32250022888184,20.667499542236328
12.221485167302365,0.1310279965400695,-0.9406200051307678,0.3132959902286529,16.975000381469727,-19.075000762939453,23.13500022888184
12.241786637679944,0.1561599969863891,-0.958187997341156,0.2901159822940826,14.5600004196167,-18.88249969482422,24.622499465942383
12.262088108057522,0.1690919995307922,-0.9725840091705322,0.2696200013160705,11.357500076293944,-19.19750022888184,24.7450008392334
12.282389578435101,0.1869039982557296,-0.9659959673881532,0.264983981847763,9.274999618530272,-20.33500099182129,23.78249931335449
12.30269104881268,0.1878799945116043,-0.9413520097732544,0.2823079824447632,7.962500095367432,-20.614999771118164,23.69499969482422
12.322992519190258,0.1739719957113266,-0.9167079925537108,0.2984119951725006,6.335000038146973,-20.387500762939453,25.39249992370605
12.343293989567837,0.1378600001335144,-0.9088999629020692,0.2832840085029602,3.7100000381469727,-19.232500076293945,28.559999465942383
12.363595459945415,0.0651479959487915,-0.9564799666404724,0.2596159875392914,-1.190000057220459,-16.047500610351562,32.23500061035156
12.383896930322994,-0.013663999736309,-1.0662800073623655,0.2776719927787781,-5.565000057220459,-14.454999923706056,33.6349983215332
12.404198400700572,-0.0509959980845451,-1.0960479974746704,0.2852360010147095,-2.3975000381469727,-16.887500762939453,30.25749969482422
12.424499871078151,-0.0670999959111213,-1.071403980255127,0.268887996673584,5.652500152587891,-21.875,28.2450008392334
12.44480134145573,-0.0517279990017414,-0.8796199560165405,0.2593719959259033,17.045000076293945,-29.69750022888184,28.0
12.465102811833308,-0.130295991897583,-0.9677039980888368,0.3562400043010711,-2.6600000858306885,-30.082500457763672,21.21000099182129
12.485404282210887,-0.2413159906864166,-0.9469639658927916,0.3686839938163757,-2.047499895095825,-26.28499984741211,16.135000228881836
12.505705752588465,-0.2354599982500076,-0.9823439717292786,0.3352559804916382,-0.2975000143051147,-38.0625,18.76000022888184
12.526007222966044,-0.1522559970617294,-0.9025560021400452,0.3779560029506683,8.71500015258789,-47.1974983215332,23.030000686645508
12.546308693343622,-0.1000399962067604,-0.8644919991493225,0.4106519818305969,9.1875,-47.23250198364258,25.53249931335449
12.5666101637212,-0.0668559968471527,-0.9716079831123352,0.4391999840736389,5.547500133514404,-48.00249862670898,24.71000099182129
12.58691163409878,0.0129319997504353,-0.8593679666519165,0.447983980178833,11.515000343322754,-43.470001220703125,22.399999618530277
12.607213104476358,-0.0043919999152421,-0.944767951965332,0.4718959927558899,5.53000020980835,-44.64250183105469,20.93000030517578
12.627514574853937,-0.0239119995385408,-0.9325679540634156,0.4975159764289856,4.795000076293945,-39.8650016784668,24.01000022888184
12.647816045231515,-0.0846679955720901,-0.8920639753341675,0.5006880164146423,3.1675000190734863,-38.13249969482422,27.28249931335449
12.668117515609094,-0.1105320006608963,-0.8869400024414062,0.5028839707374573,-1.627500057220459,-39.98749923706055,28.787500381469727
12.688418985986672,-0.1041879951953888,-0.9020679593086244,0.4821439981460571,-4.690000057220459,-38.5525016784668,29.102500915527344
12.70872045636425,-0.0861319974064827,-0.9364719986915588,0.4484719932079315,-4.357500076293945,-34.474998474121094,29.802499771118164
12.72902192674183,-0.0736880004405975,-0.9223200082778932,0.4269999861717224,0.3849999904632568,-31.88500022888184,30.04750061035156
12.749323397119408,-0.0856439992785453,-0.8705919981002808,0.4135800004005432,4.65500020980835,-31.13249969482422,29.24250030517578
12.769624867496987,-0.0956479981541633,-0.8259400129318237,0.4062599837779999,5.477499961853027,-31.727500915527344,27.037500381469727
12.789926337874565,-0.1015039980411529,-0.8100799918174744,0.3945479989051819,1.8200000524520876,-32.70750045776367,25.375
12.810227808252144,-0.099551998078823,-0.8181319832801819,0.3869839906692505,-2.8350000381469727,-34.10750198364258,23.975000381469727
12.830529278629722,-0.0975999981164932,-0.8369199633598328,0.3886919915676117,-6.510000228881836,-36.17250061035156,23.55500030517578
12.8508307490073,-0.1066280007362365,-0.8552199602127075,0.407723993062973,-9.887499809265137,-37.64250183105469,24.71000099182129
12.87113221938488,-0.1210239976644516,-0.8727880120277405,0.4284639954566955,-11.095000267028809,-38.53499984741211,24.20249938964844
12.891433689762458,-0.1298079937696457,-0.8779119849205017,0.4389559924602508,-11.095000267028809,-39.35750198364258,23.32749938964844
12.911735160140037,-0.1378600001335144,-0.9169519543647766,0.4172399938106537,-12.72249984741211,-40.35499954223633,23.57250022888184
12.932036630517615,-0.1493279933929443,-0.9318360090255736,0.3962559998035431,-11.34000015258789,-39.462501525878906,23.64249992370605
12.952338100895194,-0.1522559970617294,-0.928663969039917,0.3933279812335968,-10.045000076293944,-40.477500915527344,24.290000915527344
12.972639571272772,-0.1549399942159652,-0.9320799708366394,0.3789319992065429,-11.322500228881836,-42.997501373291016,25.14750099182129
12.99294104165035,-0.1505479961633682,-0.9191479682922364,0.3720999956130981,-9.99250030517578,-45.727500915527344,24.482500076293945
13.01324251202793,-0.1549399942159652,-0.891819953918457,0.379175990819931,-9.082500457763672,-46.54999923706055,23.852500915527344
13.033543982405508,-0.157379999756813,-0.9076799750328064,0.3657560050487518,-10.640000343322754,-48.650001525878906,24.290000915527344
13.053845452783087,-0.1659199893474578,-0.8991400003433228,0.367464005947113,-10.692500114440918,-51.55500030517578,24.01000022888184
13.074146923160665,-0.1764120012521743,-0.9220759868621826,0.3628279864788055,-12.407500267028809,-54.459999084472656,23.92250061035156
13.094448393538244,-0.1849519908428192,-0.9250040054321288,0.375027984380722,-14.1225004196167,-61.52999877929688,23.76499938964844
13.114749863915822,-0.1934919953346252,-0.9452559947967528,0.3657560050487518,-15.522500038146973,-65.94000244140625,23.8700008392334
13.1350513342934,-0.1822679936885833,-0.9479399919509888,0.3601439893245697,-13.789999961853027,-71.88999938964844,23.1875
13.15535280467098,-0.1827559918165207,-0.9330559968948364,0.3635599911212921,-12.18000030517578,-73.5875015258789,23.39750099182129
13.175654275048558,-0.1800719946622848,-0.9406200051307678,0.3564839959144592,-13.05500030517578,-76.5625,24.727500915527344
13.195955745426136,-0.1766559928655624,-0.9374479651451112,0.3418439924716949,-13.49250030517578,-79.69499969482422,25.76000022888184
13.216257215803715,-0.1620160043239593,-0.936959981918335,0.3403799831867218,-14.50749969482422,-82.11000061035156,27.14249992370605
13.236558686181294,-0.1493279933929443,-0.937936007976532,0.3425759971141815,-16.502500534057617,-82.96749877929688,28.36750030517578
13.256860156558872,-0.1412760019302368,-0.9381799697875975,0.3416000008583069,-17.517499923706055,-83.0199966430664,28.64750099182129
13.27716162693645,-0.140299990773201,-0.929152011871338,0.338916003704071,-17.639999389648438,-83.05500030517578,28.262500762939453
13.29746309731403,-0.1368840038776397,-0.909875988960266,0.3357439935207367,-17.377500534057617,-83.2125015258789,27.28249931335449
13.317764567691608,-0.1266359984874725,-0.9020679593086244,0.3416000008583069,-17.360000610351562,-83.42250061035156,26.0049991607666
13.338066038069186,-0.1171199977397918,-0.904263973236084,0.3442839980125427,-17.43000030517578,-82.23249816894531,24.780000686645508
13.358367508446765,-0.1117519959807396,-0.9057279825210572,0.3491639792919159,-17.010000228881836,-81.4800033569336,23.22249984741211
13.378668978824344,-0.1173639968037605,-0.9096319675445556,0.3586799800395965,-16.467500686645508,-80.44750213623047,20.96500015258789
13.398970449201922,-0.10589599609375,-0.90938800573349,0.3652679920196533,-15.3125,-78.80249786376953,18.77750015258789
13.4192719195795,-0.1076039969921112,-0.8962119817733765,0.3659999966621399,-13.667500495910645,-77.3324966430664,15.994999885559082
13.43957338995708,-0.1166319996118545,-0.8579039573669434,0.363315999507904,-12.162500381469728,-75.93250274658203,12.704999923706056
13.459874860334658,-0.1378600001335144,-0.8366760015487671,0.3701480031013489,-13.15999984741211,-74.51499938964844,10.90250015258789
13.480176330712236,-0.152988001704216,-0.8200839757919312,0.3616079986095428,-14.682499885559082,-73.86750030517578,10.0625
13.500477801089815,-0.142984002828598,-0.8256959915161133,0.3557519912719726,-16.239999771118164,-73.98999786376953,8.925000190734863
13.520779271467394,-0.0883279964327812,-0.8466799855232239,0.3781999945640564,-17.290000915527344,-71.8375015258789,6.929999828338623
13.541080741844972,-0.0397720001637935,-0.8857199549674988,0.3913759887218475,-18.6200008392334,-66.81500244140625,5.09250020980835
13.56138221222255,-0.0007319999858736,-1.019919991493225,0.3789319992065429,-21.420000076293945,-60.67250061035156,6.072500228881836
13.58168368260013,0.052216000854969,-1.2724599838256836,0.3730759918689728,-20.790000915527344,-52.744998931884766,12.5649995803833
13.601985152977708,0.0361119993031024,-1.417639970779419,0.3413559794425964,-6.84250020980835,-43.29500198364258,23.39750099182129
13.622286623355286,-0.1034559980034828,-1.201211929321289,0.2862119972705841,21.90999984741211,-43.3125,24.920000076293945
13.642588093732865,-0.1119959950447082,-0.8234999775886536,0.3586799800395965,36.64500045776367,-48.650001525878906,13.737500190734863
13.662889564110444,-0.0822279974818229,-0.6863719820976257,0.3757599890232086,22.627500534057617,-43.907501220703125,3.884999990463257
13.683191034488022,-0.0265959985554218,-0.7717719674110413,0.297435998916626,1.399999976158142,-45.23749923706055,-1.5225000381469729
13.7034925048656,0.061243999749422,-1.054811954498291,0.236191987991333,-23.25749969482422,-56.595001220703125,6.054999828338623
13.72379397524318,0.0239119995385408,-1.0748199224472046,0.2164279967546463,-14.542500495910645,-63.33250045776367,6.369999885559082
13.744095445620758,0.0148839997127652,-1.0555440187454224,0.2174039930105209,-4.304999828338623,-72.39749908447266,2.0299999713897705
13.764396915998336,0.0239119995385408,-1.0570080280303955,0.2220399975776672,-2.887500047683716,-80.62249755859375,-1.9424999952316284
13.784698386375915,0.0775920003652572,-1.073356032371521,0.2305800020694732,-2.0824999809265137,-84.875,-7.367499828338623
13.804999856753494,0.17323999106884,-1.0260199308395386,0.2408279925584793,5.162499904632568,-83.0199966430664,-11.760000228881836
13.825301327131072,0.2400960028171539,-0.9916160106658936,0.2588839828968048,8.907500267028809,-81.42749786376953,-12.057499885559082
13.84560279750865,0.2618120014667511,-0.9340319633483888,0.2576639950275421,8.557499885559082,-82.40750122070312,-12.442500114440918
13.86590426788623,0.2686440050601959,-0.8859639763832092,0.2264319956302642,4.742499828338623,-82.37249755859375,-13.667500495910645
13.886205738263808,0.2659600079059601,-0.8359439969062805,0.2176479995250702,-3.4649999141693115,-79.11750030517578,-12.022500038146973
13.906507208641386,0.2474159896373748,-0.832040011882782,0.2278959900140762,-14.647500038146973,-72.06500244140625,-6.352499961853027
13.926808679018965,0.1810479909181594,-0.856440007686615,0.2644959986209869,-21.927499771118164,-62.98250198364258,0.6299999952316284
13.947110149396543,0.1015039980411529,-0.8661999702453613,0.3328160047531128,-24.79750061035156,-59.307498931884766,6.684999942779541
13.967411619774122,0.0490439981222152,-0.9045079946517944,0.3723439872264862,-27.614999771118164,-61.14500045776367,9.607500076293944
13.9877130901517,0.0780799984931945,-0.932811975479126,0.3630719780921936,-27.457500457763672,-65.80000305175781,8.119999885559082
14.00801456052928,0.1520119905471801,-0.929152011871338,0.3071959912776947,-24.9375,-68.94999694824219,5.880000114440918
14.028316030906858,0.2042279988527298,-0.8974319696426392,0.2603479921817779,-22.24250030517578,-68.49500274658203,5.477499961853027
14.048617501284436,0.2479040026664734,-0.8598560094833374,0.2713280022144317,-21.50749969482422,-65.0999984741211,7.175000190734863
14.068918971662015,0.2625440061092376,-0.8376519680023193,0.2762079834938049,-21.087499618530277,-59.657501220703125,9.25749969482422
14.089220442039593,0.2579079866409302,-0.7981239557266235,0.2735239863395691,-21.80500030517578,-54.407501220703125,11.112500190734863
14.109521912417172,0.2510759830474853,-0.7834839820861816,0.2535159885883331,-27.33500099182129,-49.75249862670898,14.5600004196167
14.12982338279475,0.2359479963779449,-0.8171559572219849,0.2293599992990493,-34.63249969482422,-46.462501525878906,19.582500457763672
14.15012485317233,0.2083759903907776,-0.8957239985466003,0.2081319987773895,-40.07500076293945,-45.86750030517578,24.36000061035156
14.170426323549908,0.1810479909181594,-0.9830759763717652,0.206179991364479,-40.12749862670898,-47.442501068115234,28.332500457763672
14.190727793927486,0.1744599938392639,-1.0521279573440552,0.2300919890403747,-33.529998779296875,-48.02000045776367,30.677499771118164
14.211029264305065,0.1915400028228759,-1.1053199768066406,0.2591280043125152,-24.71000099182129,-47.72249984741211,28.927499771118164
14.231330734682643,0.2408279925584793,-1.1294759511947632,0.2823079824447632,-16.170000076293945,-48.212501525878906,21.6825008392334
14.251632205060222,0.2825520038604736,-1.050663948059082,0.3030479848384857,-9.467499732971191,-50.032501220703125,12.145000457763672
14.2719336754378,0.2820639908313751,-1.0235799551010132,0.2725479900836944,-5.25,-53.20000076293945,6.072500228881836
14.29223514581538,0.2349720001220703,-1.02675199508667,0.2520520091056824,1.1725000143051147,-56.10499954223633,4.497499942779541
14.312536616192958,0.2149640023708343,-1.2705079317092896,0.1476199924945831,6.755000114440918,-64.68000030517578,6.247499942779541
14.332838086570536,0.1890999972820282,-1.3864079713821411,0.2073999941349029,14.315000534057615,-58.95750045776367,-2.9049999713897705
14.353139556948115,0.1493279933929443,-1.40885591506958,0.1722639948129654,21.89249992370605,-50.62749862670898,-13.072500228881836
14.373441027325693,0.1634799987077713,-1.270751953125,0.0295239984989166,36.64500045776367,-36.45249938964844,-16.274999618530273
14.393742497703272,0.1466439962387085,-1.1587560176849363,0.0495319999754428,50.557498931884766,-28.927499771118164,-3.552500009536743
14.41404396808085,0.1010159999132156,-1.1045880317687988,0.05197199806571,60.21749877929688,-32.182498931884766,10.762499809265137
14.434345438458429,-0.0129319997504353,-1.0477359294891355,0.1132159978151321,64.47000122070312,-32.35750198364258,18.987499237060547
14.454646908836008,-0.142984002828598,-0.9989359974861144,0.1849519908428192,60.8125,-34.6150016784668,18.479999542236328
14.474948379213586,-0.201787993311882,-0.8920639753341675,0.2049599885940551,61.477500915527344,-34.282501220703125,9.22249984741211
14.495249849591165,-0.187391996383667,-0.8805959820747375,0.2037400007247924,61.07500076293945,-25.88249969482422,4.392499923706055
14.515551319968743,-0.0502640008926391,-0.8156920075416565,0.2757200002670288,59.307498931884766,-8.994999885559082,7.997499942779541
14.535852790346322,0.0344039984047412,-0.8122760057449341,0.2242359966039657,42.9275016784668,11.795000076293944,24.51749992370605
14.5561542607239,0.0458719991147518,-0.8718119859695435,0.1915400028228759,28.350000381469727,25.09499931335449,37.625
14.576455731101479,0.046604000031948,-0.9679479598999025,0.2254559993743896,28.01749992370605,23.467500686645508,35.03499984741211
14.596757201479058,-0.018300000578165,-0.90938800573349,0.3123199939727783,33.477500915527344,15.295000076293944,31.622499465942383
14.617058671856636,-0.1071159988641738,-0.9262239933013916,0.3474559783935547,33.6349983215332,14.577500343322754,23.48500061035156
14.637360142234215,-0.1276119947433471,-0.8964560031890869,0.3520919978618622,36.522499084472656,7.4375,11.654999732971191
14.657661612611793,-0.1359079927206039,-0.8164240121841431,0.3010959923267364,36.470001220703125,3.0274999141693115,7.980000019073486
14.677963082989372,-0.1241960003972053,-0.7398079633712769,0.2964600026607513,26.582500457763672,2.572499990463257,12.914999961853027
14.69826455336695,-0.0895479992032051,-0.7468839883804321,0.3386719822883606,10.9375,4.007500171661377,20.05500030517578
14.718566023744529,-0.0763719975948333,-0.8366760015487671,0.3906439840793609,1.2424999475479126,6.579999923706055,23.57250022888184
14.738867494122108,-0.0924759954214096,-0.8945040106773376,0.3943039774894714,3.1675000190734863,6.615000247955322,22.5575008392334
14.759168964499686,-0.0627079978585243,-0.8830359578132629,0.3852759897708893,9.345000267028809,2.992500066757202,18.934999465942383
14.779470434877265,-0.0478239990770816,-0.8488759994506836,0.366487979888916,11.234999656677246,1.7675000429153442,14.175000190734863
14.799771905254843,-0.0461159981787204,-0.8171559572219849,0.3669759929180145,7.402500152587891,1.627500057220459,9.625
14.820073375632422,-0.0366000011563301,-0.8139839768409729,0.3701480031013489,0.332500010728836,0.2450000047683715,6.369999885559082
14.84037484601,-0.0234239995479583,-0.7764079570770264,0.3933279812335968,-4.235000133514404,-0.3149999976158142,3.7100000381469727
14.860676316387579,-0.020983999595046,-0.7605479955673218,0.3986960053443908,-10.0625,1.8025000095367432,3.0975000858306885
14.880977786765158,-0.0117119997739791,-0.7771399617195129,0.4094319939613342,-15.942500114440918,4.077499866485596,4.550000190734863
14.901279257142736,0.0185439996421337,-0.8091039657592773,0.3940599858760834,-18.795000076293945,7.244999885559082,4.480000019073486
14.921580727520315,-0.1115079969167709,-0.8344799876213074,0.4604279994964599,-22.03249931335449,5.09250020980835,1.0149999856948853
14.941882197897893,-0.1024799942970275,-0.9303719997406006,0.4760439991950989,-22.38249969482422,1.5924999713897705,0.4025000035762787
14.962183668275472,-0.0585599988698959,-0.990395963191986,0.4709199965000152,-15.102499961853027,3.0274999141693115,-0.7175000309944153
14.98248513865305,-0.0060999998822808,-1.014796018600464,0.4670159816741943,-7.017499923706055,6.230000019073486,-0.0525000020861625
15.002786609030629,-0.018300000578165,-1.0118680000305176,0.4823879897594452,-0.699999988079071,8.27750015258789,2.9749999046325684
15.023088079408208,-0.0692960023880004,-0.9367159605026244,0.5070319771766663,3.4124999046325684,9.99250030517578,4.987500190734863
15.043389549785786,-0.1173639968037605,-0.9096319675445556,0.5441200137138367,2.414999961853028,12.267499923706056,9.414999961853027
15.063691020163365,-0.191783994436264,-0.924027979373932,0.5555880069732666,0.699999988079071,14.524999618530272,12.949999809265137
15.083992490540943,-0.3196399807929992,-1.001863956451416,0.5248439908027649,-0.3849999904632568,13.387499809265137,15.102499961853027
15.104293960918522,-0.359167993068695,-1.1899880170822144,0.5692520141601562,2.922499895095825,7.490000247955322,18.112499237060547
15.1245954312961,-0.2176479995250702,-1.2722159624099731,0.685151994228363,14.47249984741211,0.8575000166893005,22.71500015258789
15.144896901673679,-0.1842200011014938,-1.221951961517334,0.6444039940834045,25.899999618530277,-2.309999942779541,22.645000457763672
15.165198372051258,-0.2459519952535629,-1.0062559843063354,0.5458279848098755,34.247501373291016,-3.255000114440918,14.244999885559082
15.185499842428836,-0.2784039974212646,-0.8764479756355286,0.4584759771823883,26.600000381469727,-5.809999942779541,2.450000047683716
15.205801312806415,-0.2830399870872497,-0.929639995098114,0.3540439903736114,14.4375,-14.140000343322754,-12.670000076293944
15.226102783183993,-0.3132959902286529,-1.0011320114135742,0.2840159833431244,10.272500038146973,-27.649999618530277,-26.302499771118164
15.246404253561572,-0.2152079939842224,-1.040903925895691,0.218868002295494,7.507500171661377,-41.5625,-26.950000762939453
15.26670572393915,-0.023667998611927,-0.9218319654464722,0.1505479961633682,12.880000114440918,-39.39250183105469,-20.107500076293945
15.287007194316729,-0.0300120003521442,-0.832040011882782,0.0807639956474304,19.127500534057617,-32.40999984741211,-15.34749984741211
15.307308664694308,-0.0710039958357811,-0.843019962310791,0.167383998632431,15.68000030517578,-41.82500076293945,-14.770000457763672
15.327610135071886,-0.0690519958734512,-0.9018239974975586,0.3128080070018768,1.784999966621399,-57.3650016784668,-15.855000495910645
15.347911605449465,-0.06734399497509,-0.9408639669418336,0.3486759960651397,-7.28000020980835,-66.02750396728516,-18.32250022888184
15.368213075827043,-0.0649039968848228,-0.9860039949417114,0.3198840022087097,-7.962500095367432,-69.10749816894531,-20.125
15.388514546204622,-0.056607998907566,-1.010159969329834,0.3115879893302917,-3.3424999713897705,-70.24500274658203,-21.787500381469727
15.4088160165822,-0.0231800004839897,-0.9308599829673768,0.3315959870815277,2.677500009536743,-71.6449966430664,-22.924999237060547
15.429117486959779,0.0287919994443655,-0.8286240100860596,0.3254959881305694,2.2049999237060547,-73.91999816894531,-20.3700008392334
15.449418957337357,0.0661239996552467,-0.7556679844856262,0.2906039953231811,-6.387499809265137,-76.0199966430664,-14.717499732971191
15.469720427714936,0.1139479950070381,-0.7278519868850708,0.2459519952535629,-21.2450008392334,-77.80500030517578,-7.105000019073486
15.490021898092515,0.1478639990091323,-0.8005639910697937,0.2410719990730285,-35.647499084472656,-77.06999969482422,0.875
15.510323368470093,0.1690919995307922,-0.8286240100860596,0.289139986038208,-37.99250030517578,-73.20249938964844,5.25
15.530624838847672,0.1637239903211593,-0.8801079988479614,0.2954840064048767,-28.927499771118164,-65.7125015258789,8.942500114440918
15.55092630922525,0.1851959973573684,-0.854487955570221,0.281576007604599,-22.17250061035156,-62.66749954223633,10.079999923706056
15.571227779602829,0.2125239968299865,-0.729315996170044,0.3035359978675842,-21.559999465942383,-56.682498931884766,16.170000076293945
15.591529249980407,0.2034959942102432,-0.7678679823875427,0.3013399839401245,-31.02750015258789,-51.817501068115234,27.19499969482422
15.611830720357986,0.1866599917411804,-0.7786039710044861,0.3050000071525574,-32.095001220703125,-48.334999084472656,34.790000915527344
15.632132190735565,0.1637239903211593,-0.8356999754905701,0.3272039890289306,-32.30500030517578,-43.102500915527344,42.4375
15.652433661113143,0.1812919974327087,-0.9179279804229736,0.3672199845314026,-31.552499771118164,-36.837501525878906,46.07749938964844
15.672735131490722,0.2000799924135208,-1.0367560386657717,0.374783992767334,-31.552499771118164,-31.86750030517578,41.42250061035156
15.6930366018683,0.1659199893474578,-1.1563159227371216,0.3010959923267364,-28.89249992370605,-28.787500381469727,27.51000022888184
15.713338072245879,0.085887998342514,-1.1489959955215454,0.3403799831867218,-19.565000534057617,-29.68000030517578,11.130000114440918
15.733639542623457,0.0397720001637935,-1.0670119524002075,0.423583984375,-9.607500076293944,-32.8125,-0.962499976158142
15.753941013001036,0.0895479992032051,-0.9964959621429444,0.4814119935035705,-3.4124999046325684,-36.837501525878906,-4.795000076293945
15.774242483378615,0.1986159980297088,-0.9938119649887084,0.4350519776344299,0.1400000005960464,-39.375,-2.4674999713897705
15.794543953756193,0.1856839954853058,-1.0599359273910522,0.3979640007019043,5.775000095367432,-38.08000183105469,7.297500133514404
15.814845424133772,0.2174039930105209,-1.214143991470337,0.3286679983139038,10.359999656677246,-37.5724983215332,10.552499771118164
15.83514689451135,0.2737680077552795,-1.3803080320358276,0.293531984090805,11.602499961853027,-37.29249954223633,-0.3849999904632568
15.855448364888929,0.2666919827461242,-1.380795955657959,0.2640079855918884,9.99250030517578,-36.8025016784668,-22.78499984741211
15.875749835266507,0.3425759971141815,-1.384943962097168,-0.0424560010433197,13.422499656677246,-24.53499984741211,-38.5525016784668
15.896051305644086,0.293531984090805,-1.158511996269226,-0.1554279923439026,38.622501373291016,-10.307499885559082,-38.46500015258789
15.916352776021665,0.142984002828598,-0.9308599829673768,-0.0514839999377727,55.650001525878906,-21.997499465942383,-19.26749992370605
15.936654246399243,-0.0492879971861839,-0.6927160024642944,0.1351760029792785,63.157501220703125,-35.03499984741211,3.184999942779541
15.956955716776822,-0.1664080023765564,-0.7158960103988647,0.3757599890232086,53.27000045776367,-30.677499771118164,18.462499618530277
15.9772571871544,-0.1061399951577186,-1.002351999282837,0.4953199923038482,31.850000381469727,-5.284999847412109,27.59749984741211
15.997558657531979,0.0314759984612464,-1.156072020530701,0.3491639792919159,28.700000762939453,28.875,24.395000457763672
16.017860127909557,0.1137039959430694,-1.0670119524002075,0.1927599906921386,47.21500015258789,50.3650016784668,20.475000381469727
16.038161598287136,0.1503039896488189,-0.8793759942054749,0.1925159990787506,53.23500061035156,43.6974983215332,15.085000038146973
16.058463068664715,0.1571359932422638,-0.8281359672546387,0.1771439909934997,37.60750198364258,34.63249969482422,15.78499984741211
16.078764539042293,0.1324919909238815,-0.8091039657592773,0.2659600079059601,26.145000457763672,30.975000381469727,20.8075008392334
16.09906600941987,0.0631959959864616,-0.8056879639625549,0.3628279864788055,22.24250030517578,36.27750015258789,21.700000762939453
16.11936747979745,-0.0356239974498748,-0.7971479892730713,0.4030880033969879,20.475000381469727,43.18999862670898,17.832500457763672
16.13966895017503,-0.2122799903154373,-0.7632319927215576,0.3523359894752502,13.52750015258789,50.17250061035156,17.587499618530273
16.159970420552607,-0.1898320019245147,-0.721996009349823,0.3845439851284027,3.762500047683716,46.27000045776367,21.40250015258789
16.180271890930186,-0.1212679967284202,-0.7498120069503784,0.391864001750946,-5.53000020980835,39.47999954223633,24.604999542236328
16.200573361307764,-0.0724679976701736,-0.7527399659156799,0.3769800066947937,-7.804999828338623,33.775001525878906,22.68000030517578
16.220874831685343,-0.0458719991147518,-0.7759199738502502,0.3733199834823608,-11.707500457763672,26.477500915527344,18.95249938964844
16.24117630206292,-0.0802759975194931,-0.8542439937591553,0.3838119804859161,-14.0,23.975000381469727,13.282500267028809
16.2614777724405,-0.0856439992785453,-0.8393599987030029,0.4316360056400299,-11.637499809265137,20.86000061035156,2.6600000858306885
16.28177924281808,-0.0292799994349479,-0.7278519868850708,0.4338319897651672,-13.579999923706056,19.19750022888184,-6.457499980926514
16.302080713195657,0.0068319998681545,-0.7361479997634888,0.4167519807815552,-24.762500762939453,18.655000686645508,-10.045000076293944
16.322382183573236,0.0131759997457265,-0.8698599934577942,0.4504239857196808,-33.72249984741211,15.767499923706056,-11.00749969482422
16.342683653950814,-0.009515999816358,-1.0172359943389893,0.4728719890117645,-29.487499237060547,13.142499923706056,-12.145000457763672
16.362985124328393,0.0004879999905824,-1.140455961227417,0.5348479747772217,-13.52750015258789,11.164999961853027,-11.970000267028809
16.38328659470597,0.0314759984612464,-1.1353319883346558,0.5416799783706665,5.652500152587891,12.494999885559082,-8.295000076293945
16.40358806508355,0.0275719985365867,-0.977952003479004,0.5087400078773499,19.565000534057617,17.727500915527344,-3.4649999141693115
16.42388953546113,-0.0392839983105659,-0.8532679677009583,0.5026400089263916,20.545000076293945,24.51749992370605,-1.715000033378601
16.444191005838707,-0.0893040001392364,-0.8408240079879761,0.5502200126647949,14.0,29.24250030517578,-6.28249979019165
16.464492476216286,-0.0685639977455139,-1.030900001525879,0.627079963684082,4.112500190734863,28.59499931335449,-9.239999771118164
16.484793946593864,-0.153231993317604,-1.3598120212554932,0.5970680117607117,4.252500057220459,29.295000076293945,-7.157500267028809
16.505095416971443,-0.3289119899272918,-1.536955952644348,0.4623799920082092,20.09000015258789,23.467500686645508,-3.5174999237060547
16.52539688734902,-0.4423719942569732,-1.3815280199050903,0.3240320086479187,39.25249862670898,2.782500028610229,-4.287499904632568
16.5456983577266,-0.4008919894695282,-1.016260027885437,0.2901159822940826,55.317501068115234,-12.477499961853027,-13.212499618530272
16.56599982810418,-0.1776320040225982,-0.6668519973754883,0.1839759945869445,58.60750198364258,-5.880000114440918,-23.39750099182129
16.586301298481757,-0.0080519998446106,-0.5870639681816101,0.1266359984874725,43.977500915527344,4.427500247955322,-29.24250030517578
16.606602768859336,0.0771040022373199,-0.7324879765510559,0.1951999962329864,16.467500686645508,-2.887500047683716,-30.69499969482422
16.626904239236914,0.1229759976267814,-1.0601799488067627,0.3359879851341247,-12.5649995803833,-13.020000457763672,-21.73500061035156
16.647205709614493,-0.0512399971485137,-1.211459994316101,0.3081719875335693,-10.675000190734863,-28.06999969482422,-15.364999771118164
16.66750717999207,-0.0124439997598528,-1.120692014694214,0.3603879809379577,5.617499828338623,-49.962501525878906,-22.732500076293945
16.68780865036965,0.0556319989264011,-0.9459879994392396,0.3757599890232086,14.699999809265137,-46.70750045776367,-34.755001068115234
16.70811012074723,0.0697840005159378,-0.8271600008010864,0.3474559783935547,11.760000228881836,-33.7400016784668,-42.087501525878906
16.728411591124807,0.1027240008115768,-0.7176039814949036,0.3328160047531128,2.4674999713897705,-26.4424991607666,-44.32749938964844
16.748713061502386,0.1778759956359863,-0.7261439561843872,0.2854799926280975,-36.48749923706055,-23.99250030517578,-23.799999237060547
16.769014531879964,0.1912959963083267,-0.802515983581543,0.2866999804973602,-44.04750061035156,-21.280000686645508,-12.880000114440918
16.789316002257543,0.191783994436264,-0.8727880120277405,0.2967039942741394,-40.6349983215332,-18.042499542236328,-8.802499771118164
16.80961747263512,0.2076440006494522,-0.8574159741401672,0.3408679962158203,-29.81999969482422,-13.422499656677246,-11.40999984741211
16.8299189430127,0.2178919911384582,-0.7798239588737488,0.3647799789905548,-21.21000099182129,-6.177500247955322,-10.255000114440918
16.85022041339028,0.2439999878406524,-0.7368800044059753,0.3476999998092651,-21.524999618530277,1.2599999904632568,-2.275000095367432
16.870521883767857,0.2513200044631958,-0.7124800086021423,0.3015840053558349,-24.2549991607666,8.890000343322754,8.539999961853027
16.890823354145436,0.2437559962272644,-0.835211992263794,0.3091479837894439,-26.127500534057617,15.81999969482422,17.9375
16.911124824523014,0.2271640002727508,-0.9452559947967528,0.3606320023536682,-18.82999992370605,23.520000457763672,20.33500099182129
16.931426294900593,0.1964199990034103,-1.046515941619873,0.3625839948654175,-9.712499618530272,30.467500686645508,14.822500228881836
16.95172776527817,0.1478639990091323,-1.0899479389190674,0.3447719812393188,0.3499999940395355,36.17250061035156,2.782500028610229
16.97202923565575,0.0602679997682571,-1.0277279615402222,0.3906439840793609,9.345000267028809,39.095001220703125,-8.960000038146973
16.99233070603333,-0.0175679996609687,-0.901091992855072,0.4818999767303467,10.762499809265137,33.31999969482422,-16.712499618530273
17.012632176410907,-0.0605119988322258,-0.8335039615631104,0.5275279879570007,3.6575000286102295,20.86000061035156,-19.337499618530277
17.032933646788486,-0.0200079996138811,-0.7856799960136414,0.5399720072746277,-1.837499976158142,10.832500457763672,-18.32250022888184
17.053235117166064,0.0422119982540607,-0.7912920117378235,0.5219159722328186,-3.5350000858306885,11.270000457763672,-9.817500114440918
17.073536587543643,0.0971119999885559,-0.814471960067749,0.4789719879627228,-1.784999966621399,15.085000038146973,0.1924999952316284
17.09383805792122,0.2022759914398193,-0.8823039531707764,0.4228519797325134,-3.0975000858306885,12.477499961853027,6.597499847412109
17.1141395282988,0.2840159833431244,-1.0421240329742432,0.3418439924716949,-6.737500190734863,6.159999847412109,11.515000343322754
17.13444099867638,0.3394039869308471,-1.3322399854660034,0.2930440008640289,-9.170000076293944,1.3125,9.22249984741211
17.154742469053957,0.3120760023593902,-1.660175919532776,0.3821039795875549,-18.287500381469727,3.237499952316284,-17.639999389648438
17.175043939431536,0.2664479911327362,-1.6550519466400146,0.3555079996585846,-9.730000495910645,7.769999980926514,-55.47499847412109
17.195345409809114,0.2810879945755005,-1.1604639291763306,0.0380639992654323,23.729999542236328,21.45499992370605,-57.81999969482422
17.215646880186693,0.2398519963026046,-0.7620120048522949,0.0309880003333091,37.09999847412109,25.217500686645508,-33.26750183105469
17.23594835056427,0.1378600001335144,-0.5758399963378906,0.1139479950070381,37.852500915527344,25.479999542236328,-3.3424999713897705
17.25624982094185,0.0795440003275871,-0.574131965637207,0.1920280009508133,29.03249931335449,37.79999923706055,17.0625
17.27655129131943,-0.002195999957621,-0.9113399982452391,0.297679990530014,-9.292500495910645,58.97499847412109,20.737499237060547
17.296852761697007,0.0505079999566078,-1.2187799215316772,0.3325719833374023,-31.815000534057617,63.665000915527344,0.8050000071525574
17.317154232074586,0.0905239954590797,-1.2334200143814087,0.3111000061035156,-9.520000457763672,66.98999786376953,-13.947500228881836
17.337455702452164,0.0583159998059272,-1.0855560302734375,0.2769399881362915,15.329999923706056,69.72000122070312,-12.827500343322754
17.357757172829743,-0.0139079997316002,-0.8286240100860596,0.1637239903211593,19.75749969482422,60.44499969482422,0.8575000166893005
17.37805864320732,-0.0173240005970001,-0.8051999807357788,0.2430239915847778,8.417500495910645,56.17499923706055,3.745000123977661
17.3983601135849,-0.0297679994255304,-0.7905600070953369,0.2962159812450409,-3.849999904632568,56.087501525878906,2.765000104904175
17.41866158396248,-0.042943999171257,-0.8137399554252625,0.3042680025100708,-13.212499618530272,58.64250183105469,0.1225000023841857
17.438963054340057,-0.0561200007796287,-0.8403359651565552,0.3159799873828888,-18.917499542236328,60.060001373291016,-1.4874999523162842
17.459264524717636,-0.0509959980845451,-0.8574159741401672,0.3364759981632232,-22.225000381469727,60.060001373291016,-1.5924999713897705
17.479565995095214,-0.0424560010433197,-0.8974319696426392,0.3469679951667785,-26.0049991607666,58.04750061035156,-1.3125
17.499867465472793,-0.0339160002768039,-0.9372040033340454,0.342087984085083,-27.247499465942383,55.94750213623047,-1.8025000095367432
17.52016893585037,-0.046604000031948,-0.954039990901947,0.350383996963501,-24.9375,54.057498931884766,-2.992500066757202
17.54047040622795,-0.0807639956474304,-0.9279319643974304,0.3645359873771667,-20.912500381469727,52.76250076293945,-4.480000019073486
17.56077187660553,-0.1110199987888336,-0.8796199560165405,0.3823480010032654,-20.002500534057617,51.46749877929688,-5.985000133514404
17.581073346983107,-0.1124840006232261,-0.8452159762382507,0.4038199782371521,-22.627500534057617,50.59249877929688,-7.4375
17.601374817360686,-0.1207799986004829,-0.8615639805793762,0.4138239920139313,-26.0575008392334,49.85750198364258,-8.539999961853027
17.621676287738264,-0.10589599609375,-0.9186599850654602,0.4326120018959045,-27.457500457763672,47.16249847412109,-9.537500381469728
17.641977758115843,-0.042943999171257,-0.9281759858131408,0.4599399864673614,-23.32749938964844,45.692501068115234,-11.077500343322754
17.66227922849342,-0.0258639995008707,-0.9476959705352784,0.4535959959030151,-19.84499931335449,46.72499847412109,-12.600000381469728
17.682580698871,-0.0956479981541633,-0.9789279699325562,0.3945479989051819,-15.364999771118164,46.602500915527344,-13.317500114440918
17.70288216924858,-0.1483519971370697,-0.938423991203308,0.3708800077438354,-8.609999656677246,44.08250045776367,-15.399999618530272
17.723183639626157,-0.1578679978847503,-0.9049959778785706,0.3728320002555847,-3.2725000381469727,41.14250183105469,-19.337499618530277
17.743485110003736,-0.1373720020055771,-0.933788001537323,0.3525799810886383,2.2225000858306885,37.90499877929688,-23.92250061035156
17.763786580381314,-0.1085800006985664,-1.092144012451172,0.2747440040111542,5.302500247955322,38.727500915527344,-24.44750022888184
17.784088050758893,0.085156001150608,-1.3578599691390991,0.2715719938278198,6.28249979019165,44.275001525878906,-14.332500457763672
17.80438952113647,0.1756799966096878,-1.4181280136108398,0.2027639895677566,24.5,51.65999984741211,-1.8550000190734863
17.82469099151405,0.0871080011129379,-1.1438720226287842,0.1649439930915832,53.060001373291016,48.09000015258789,-4.340000152587891
17.84499246189163,-0.0090279998257756,-0.8752279877662659,0.187391996383667,58.415000915527344,40.7400016784668,-21.524999618530277
17.865293932269207,-0.0163480006158351,-0.7685999870300293,0.2381439954042434,40.25,32.91749954223633,-42.244998931884766
17.885595402646786,0.0910120010375976,-0.7881199717521667,0.220331996679306,16.274999618530273,26.98500061035156,-54.96749877929688
17.905896873024364,0.1678719967603683,-0.8984079957008362,0.1834879964590072,-6.177500247955322,25.655000686645508,-50.977500915527344
17.926198343401943,0.1844639927148819,-0.9913719892501832,0.224723994731903,-16.607500076293945,26.0049991607666,-35.73500061035156
17.94649981377952,0.1251720041036605,-0.9777079820632936,0.2715719938278198,-11.077500343322754,24.21999931335449,-22.5575008392334
17.9668012841571,0.1483519971370697,-0.9537959694862366,0.3308639824390411,5.162499904632568,7.787499904632568,-17.517499923706055
17.98710275453468,0.2105719894170761,-0.973315954208374,0.3328160047531128,5.144999980926514,3.255000114440918,-20.912500381469727
18.007404224912257,0.2420479953289032,-0.9716079831123352,0.3098799884319305,5.757500171661377,0.6825000047683716,-23.677499771118164
18.027705695289836,0.2259439975023269,-0.9152439832687378,0.2993879914283752,7.332499980926514,0.1225000023841857,-21.524999618530277
18.048007165667414,0.196175992488861,-0.8454599976539612,0.2862119972705841,4.672500133514404,-2.1875,-14.279999732971191
18.068308636044993,0.1949559897184372,-0.7893399596214294,0.2669360041618347,-0.8575000166893005,-5.022500038146973,-5.635000228881836
18.08861010642257,0.216183990240097,-0.7988559603691101,0.2381439954042434,-6.335000038146973,-2.677500009536743,3.150000095367432
18.10891157680015,0.2400960028171539,-0.8688839673995972,0.2169159948825836,-9.327500343322754,6.28249979019165,10.86750030517578
18.12921304717773,0.2357039898633957,-0.9864919781684875,0.2171600013971328,-10.5,17.604999542236328,15.190000534057615
18.149514517555307,0.171775996685028,-1.110443949699402,0.2156959921121597,-8.417500495910645,24.63999938964844,14.47249984741211
18.169815987932886,0.0592919997870922,-1.2273199558258057,0.3162239789962768,-10.045000076293944,26.28499984741211,5.880000114440918
18.190117458310464,-0.010491999797523,-1.1460679769515991,0.3259840011596679,-3.5350000858306885,23.415000915527344,-12.022500038146973
18.210418928688043,-0.0124439997598528,-0.944279968738556,0.3281799852848053,6.510000228881836,19.54750061035156,-24.149999618530277
18.23072039906562,0.0832040011882782,-0.8327719569206238,0.2483920007944107,0.4550000131130218,15.3125,-23.502500534057617
18.2510218694432,0.1415199935436248,-0.8815720081329346,0.1581119894981384,-11.2524995803833,17.325000762939453,-14.84000015258789
18.27132333982078,0.1295640021562576,-0.93232399225235,0.1688479930162429,-14.647500038146973,20.51000022888184,-6.684999942779541
18.291624810198357,0.0539239980280399,-0.946720004081726,0.2671799957752228,-9.730000495910645,18.34000015258789,-1.0674999952316284
18.311926280575936,-0.0453839972615242,-0.9823439717292786,0.3596560060977936,-4.987500190734863,10.395000457763672,1.2424999475479126
18.332227750953514,-0.1012599989771843,-0.9830759763717652,0.3720999956130981,-0.962499976158142,0.0874999985098838,1.0499999523162842
18.352529221331093,-0.065880000591278,-0.9569680094718932,0.3074399828910827,0.1050000041723251,-7.28000020980835,1.7675000429153442
18.37283069170867,0.0173240005970001,-0.958675980567932,0.2300919890403747,-1.9774999618530276,-7.402500152587891,3.377500057220459
18.39313216208625,0.0897919982671737,-0.9555040001869202,0.2005679905414581,-4.882500171661377,-2.0299999713897705,5.425000190734863
18.41343363246383,0.1107759997248649,-0.9357399940490724,0.2374119907617569,-8.154999732971191,3.184999942779541,8.767499923706055
18.433735102841407,0.1088239997625351,-0.9147560000419616,0.2854799926280975,-12.092499732971191,2.5374999046325684,12.635000228881836
18.454036573218985,0.0841799974441528,-0.944279968738556,0.3093920052051544,-16.99250030517578,-1.5225000381469729,14.524999618530272
