Time (seconds),acc_x,acc_y,acc_z,gyro_x,gyro_y,gyro_z
0.020101004050578655,0.0563639998435974,-0.9947879910469056,-0.0736880004405975,0.9100000262260436,0.0350000001490116,-0.262499988079071
0.04020200810115731,0.0570959970355033,-0.9943000078201294,-0.0739319995045661,0.8050000071525574,0.0175000000745058,-0.2975000143051147
0.06030301215173596,0.056607998907566,-0.9952759742736816,-0.0749079957604408,0.6299999952316284,0.0874999985098838,-0.3499999940395355
0.08040401620231462,0.0570959970355033,-0.9962520003318788,-0.0761279985308647,0.5774999856948853,0.0175000000745058,-0.2800000011920929
0.10050502025289328,0.0585599988698959,-0.9974719882011414,-0.0744199976325035,0.5774999856948853,-0.0175000000745058,-0.2100000083446502
0.12060602430347193,0.0578279979526996,-0.9977160096168518,-0.0749079957604408,0.5774999856948853,-0.0874999985098838,-0.1749999970197677
0.14070702835405058,0.0585599988698959,-0.9972279667854308,-0.0744199976325035,0.5950000286102295,-0.0175000000745058,-0.1225000023841857
0.16080803240462924,0.0583159998059272,-0.9967399835586548,-0.0761279985308647,0.6299999952316284,0.0700000002980232,-0.1574999988079071
0.1809090364552079,0.0588039979338645,-0.9967399835586548,-0.0773480013012886,0.6299999952316284,0.1574999988079071,-0.262499988079071
0.20101004050578655,0.0600240007042884,-0.9960079789161682,-0.0741759985685348,0.7350000143051147,0.4200000166893005,-0.2800000011920929
0.2211110445563652,0.061243999749422,-0.9957639575004578,-0.0751519948244094,0.5950000286102295,0.699999988079071,-0.2275000065565109
0.24121204860694387,0.0585599988698959,-0.9947879910469056,-0.0729559957981109,0.699999988079071,0.8575000166893005,-0.1924999952316284
0.2613130526575225,0.0546559989452362,-0.9921039938926696,-0.0722239986062049,0.7524999976158142,0.6650000214576721,-0.2800000011920929
0.28141405670810116,0.0544119998812675,-0.9967399835586548,-0.0761279985308647,0.612500011920929,0.332500010728836,-0.4200000166893005
0.3015150607586798,0.0558759979903698,-0.998203992843628,-0.0741759985685348,0.5774999856948853,0.262499988079071,-0.4200000166893005
0.3216160648092584,0.057583998888731,-0.995519995689392,-0.0702719986438751,0.7875000238418579,0.0525000020861625,-0.3849999904632568
0.34171706885983705,0.0595359988510608,-0.9938119649887084,-0.0732000023126602,0.4025000035762787,0.0350000001490116,-0.3149999976158142
0.3618180729104157,0.0583159998059272,-0.9967399835586548,-0.06734399497509,0.2800000011920929,-0.0525000020861625,-0.1749999970197677
0.3819190769609943,0.0583159998059272,-0.9933239817619324,-0.071492001414299,-0.0350000001490116,0.1050000041723251,-0.1749999970197677
0.40202008101157294,0.0607559978961944,-0.9943000078201294,-0.0746639966964721,-0.262499988079071,0.3499999940395355,0.0350000001490116
0.42212108506215157,0.0588039979338645,-0.9964959621429444,-0.0712479948997497,0.1050000041723251,1.1375000476837158,-0.1924999952316284
0.4422220891127302,0.0548999980092048,-0.9969840049743652,-0.0697840005159378,0.0700000002980232,0.9975000023841858,-0.262499988079071
0.46232309316330883,0.0544119998812675,-0.9960079789161682,-0.0729559957981109,0.1574999988079071,0.5074999928474426,-0.332500010728836
0.48242409721388746,0.0563639998435974,-0.9969840049743652,-0.0734440013766288,0.332500010728836,0.3499999940395355,-0.3849999904632568
0.5025251012644661,0.0570959970355033,-0.9977160096168518,-0.0712479948997497,0.5425000190734863,0.3149999976158142,-0.4375
0.5226261053150448,0.0573399998247623,-0.9960079789161682,-0.0729559957981109,0.7524999976158142,0.2450000047683715,-0.5600000023841858
0.5427271093656235,0.0595359988510608,-0.9977160096168518,-0.0722239986062049,0.9100000262260436,0.1574999988079071,-0.5950000286102295
0.5628281134162022,0.0607559978961944,-0.9969840049743652,-0.0688079968094825,0.9275000095367432,0.1225000023841857,-0.5600000023841858
0.5829291174667809,0.0602679997682571,-0.9945439696311952,-0.0680759996175766,0.5774999856948853,0.2450000047683715,-0.4550000131130218
0.6030301215173596,0.0602679997682571,-0.9972279667854308,-0.0680759996175766,0.3675000071525574,0.2100000083446502,-0.3149999976158142
0.6231311255679383,0.0597799979150295,-0.9967399835586548,-0.0690519958734512,0.4200000166893005,0.2450000047683715,-0.2800000011920929
0.643232129618517,0.0583159998059272,-0.9952759742736816,-0.071492001414299,0.4375,0.4025000035762787,-0.2450000047683715
0.6633331336690956,0.0595359988510608,-0.9938119649887084,-0.0697840005159378,0.4375,0.5074999928474426,-0.1749999970197677
0.6834341377196743,0.0595359988510608,-0.9943000078201294,-0.0685639977455139,0.1749999970197677,0.5600000023841858,-0.2275000065565109
0.703535141770253,0.0583159998059272,-0.9979599714279176,-0.0692960023880004,0.0350000001490116,0.4724999964237213,-0.2450000047683715
0.7236361458208317,0.0558759979903698,-0.998691976070404,-0.0717360004782676,0.1225000023841857,0.3499999940395355,-0.2275000065565109
0.7437371498714104,0.0541680008172988,-0.998691976070404,-0.071492001414299,0.4724999964237213,0.332500010728836,-0.2275000065565109
0.7638381539219891,0.0548999980092048,-0.9967399835586548,-0.0717360004782676,0.7875000238418579,0.2975000143051147,-0.3149999976158142
0.7839391579725677,0.0561200007796287,-0.995519995689392,-0.071492001414299,0.9449999928474426,0.1574999988079071,-0.3675000071525574
0.8040401620231464,0.0597799979150295,-0.9957639575004578,-0.0695400014519691,0.7875000238418579,0.0350000001490116,-0.3675000071525574
0.8241411660737251,0.0602679997682571,-0.995519995689392,-0.0697840005159378,0.6825000047683716,0.1050000041723251,-0.3675000071525574
0.8442421701243038,0.057583998888731,-0.995519995689392,-0.0690519958734512,0.6650000214576721,0.0874999985098838,-0.332500010728836
0.8643431741748825,0.0605119988322258,-0.9994239807128906,-0.0707599967718124,0.875,-0.0700000002980232,-0.2800000011920929
0.8844441782254612,0.0592919997870922,-0.9906399846076964,-0.0695400014519691,0.9275000095367432,0.1050000041723251,-0.2975000143051147
0.9045451822760399,0.0595359988510608,-0.9984479546546936,-0.0729559957981109,0.5425000190734863,0.1050000041723251,-0.2975000143051147
0.9246461863266185,0.0580720007419586,-0.998203992843628,-0.0668559968471527,0.7524999976158142,0.0350000001490116,-0.3499999940395355
0.9447471903771972,0.0580720007419586,-0.9938119649887084,-0.0670999959111213,0.6299999952316284,0.1749999970197677,-0.5074999928474426
0.9648481944277759,0.0614879988133907,-0.9947879910469056,-0.0695400014519691,0.2975000143051147,0.0700000002980232,-0.3849999904632568
0.9849491984783546,0.0634399950504303,-0.9957639575004578,-0.0702719986438751,0.4724999964237213,0.4550000131130218,-0.3499999940395355
1.0050502025289332,0.0639280006289482,-0.9967399835586548,-0.0690519958734512,0.612500011920929,0.7524999976158142,-0.4900000095367431
1.0251512065795119,0.0607559978961944,-0.9969840049743652,-0.0680759996175766,0.6299999952316284,0.8224999904632568,-0.5249999761581421
1.0452522106300906,0.0590479969978332,-0.9969840049743652,-0.0680759996175766,0.5425000190734863,0.7175000309944153,-0.4550000131130218
1.0653532146806692,0.0600240007042884,-0.9989359974861144,-0.0724679976701736,0.5600000023841858,0.5774999856948853,-0.4025000035762787
1.085454218731248,0.0602679997682571,-0.9989359974861144,-0.0724679976701736,0.8224999904632568,0.5600000023841858,-0.4375
1.1055552227818266,0.0600240007042884,-0.9974719882011414,-0.0705159977078437,1.1024999618530271,0.5249999761581421,-0.5774999856948853
1.1256562268324053,0.057583998888731,-0.9947879910469056,-0.0710039958357811,1.0499999523162842,0.4550000131130218,-0.5950000286102295
1.145757230882984,0.0578279979526996,-0.9943000078201294,-0.0661239996552467,0.962499976158142,0.1749999970197677,-0.4900000095367431
1.1658582349335627,0.0588039979338645,-0.9923479557037354,-0.0653920024633407,0.6825000047683716,-0.0700000002980232,-0.3849999904632568
1.1859592389841414,0.0614879988133907,-0.9925919771194458,-0.0680759996175766,0.1400000005960464,-0.2800000011920929,-0.2100000083446502
1.20606024303472,0.062219999730587,-0.9979599714279176,-0.0697840005159378,-0.1749999970197677,-0.4550000131130218,-0.1749999970197677
1.2261612470852987,0.0605119988322258,-0.9991799592971802,-0.0717360004782676,0.1225000023841857,-0.332500010728836,-0.332500010728836
1.2462622511358774,0.0602679997682571,-0.9977160096168518,-0.0719799995422363,0.3149999976158142,-0.1400000005960464,-0.3149999976158142
1.266363255186456,0.0614879988133907,-0.9972279667854308,-0.0707599967718124,0.5425000190734863,-0.0700000002980232,-0.2975000143051147
1.2864642592370348,0.0600240007042884,-0.9977160096168518,-0.0712479948997497,0.6474999785423279,-0.0874999985098838,-0.2975000143051147
1.3065652632876135,0.0597799979150295,-0.9947879910469056,-0.0688079968094825,0.9800000190734864,-0.2275000065565109,-0.3675000071525574
1.3266662673381922,0.0605119988322258,-0.995519995689392,-0.0678320005536079,0.8924999833106995,-0.3675000071525574,-0.4375
1.3467672713887708,0.0619760006666183,-0.9964959621429444,-0.0685639977455139,0.8575000166893005,-0.4724999964237213,-0.4375
1.3668682754393495,0.0588039979338645,-0.9957639575004578,-0.0670999959111213,1.1024999618530271,-0.1749999970197677,-0.699999988079071
1.3869692794899282,0.0602679997682571,-0.9960079789161682,-0.0644159987568855,1.1725000143051147,-0.262499988079071,-0.7875000238418579
1.407070283540507,0.0592919997870922,-0.9967399835586548,-0.0624639987945556,1.1725000143051147,-0.4375,-0.8400000333786011
1.4271712875910856,0.0607559978961944,-0.9952759742736816,-0.061243999749422,1.190000057220459,-0.7350000143051147,-0.8050000071525574
1.4472722916416643,0.0619760006666183,-0.9967399835586548,-0.0600240007042884,0.9275000095367432,-0.8050000071525574,-0.7175000309944153
1.467373295692243,0.0649039968848228,-0.9964959621429444,-0.0600240007042884,0.7524999976158142,-0.8575000166893005,-0.7175000309944153
1.4874742997428216,0.065880000591278,-0.9950319528579712,-0.0641719996929168,0.7350000143051147,-0.8224999904632568,-0.5774999856948853
1.5075753037934003,0.0649039968848228,-0.9977160096168518,-0.0656360015273094,0.7175000309944153,-0.5950000286102295,-0.4550000131130218
1.527676307843979,0.0653920024633407,-0.9947879910469056,-0.0617319978773593,0.9800000190734864,-0.4025000035762787,-0.4724999964237213
1.5477773118945577,0.0656360015273094,-0.98990797996521,-0.0627079978585243,0.9449999928474426,-0.2975000143051147,-0.5249999761581421
1.5678783159451364,0.0670999959111213,-0.9952759742736816,-0.0641719996929168,0.4724999964237213,-0.0525000020861625,-0.5600000023841858
1.587979319995715,0.0668559968471527,-0.9991799592971802,-0.0619760006666183,0.4025000035762787,-0.0874999985098838,-0.3849999904632568
1.6080803240462938,0.0670999959111213,-0.9952759742736816,-0.0600240007042884,0.5425000190734863,0.1050000041723251,-0.4375
1.6281813280968724,0.0688079968094825,-0.993079960346222,-0.0578279979526996,0.3675000071525574,0.4550000131130218,-0.4550000131130218
1.6482823321474511,0.0702719986438751,-0.9967399835586548,-0.0614879988133907,0.0874999985098838,1.190000057220459,-0.3149999976158142
1.6683833361980298,0.0707599967718124,-0.9938119649887084,-0.0624639987945556,0.4025000035762787,1.75,-0.4550000131130218
1.6884843402486085,0.0712479948997497,-0.9943000078201294,-0.0619760006666183,0.2450000047683715,2.1524999141693115,-0.3849999904632568
1.7085853442991872,0.0683199986815452,-0.9935680031776428,-0.0595359988510608,-0.1400000005960464,2.1875,-0.1749999970197677
1.7286863483497659,0.0661239996552467,-0.9947879910469056,-0.0631959959864616,-0.5249999761581421,2.0299999713897705,-0.0700000002980232
1.7487873524003446,0.065880000591278,-0.9967399835586548,-0.0656360015273094,-0.4900000095367431,1.9424999952316284,-0.0525000020861625
1.7688883564509232,0.0634399950504303,-0.9979599714279176,-0.065880000591278,-0.4025000035762787,2.257499933242798,-0.0175000000745058
1.788989360501502,0.0629519969224929,-0.9974719882011414,-0.0685639977455139,-0.2275000065565109,2.257499933242798,-0.1400000005960464
1.8090903645520806,0.0627079978585243,-0.9969840049743652,-0.0670999959111213,0.1225000023841857,2.012500047683716,-0.2800000011920929
1.8291913686026593,0.0619760006666183,-0.9933239817619324,-0.0649039968848228,0.1050000041723251,1.9075000286102293,-0.4025000035762787
1.849292372653238,0.0651479959487915,-0.9921039938926696,-0.0670999959111213,-0.3149999976158142,1.75,-0.332500010728836
1.8693933767038167,0.0668559968471527,-0.9950319528579712,-0.0675880014896392,-0.5425000190734863,1.6449999809265137,-0.2800000011920929
1.8894943807543954,0.0663679987192154,-0.9945439696311952,-0.0695400014519691,-0.699999988079071,1.6974999904632568,-0.2800000011920929
1.909595384804974,0.062219999730587,-0.9969840049743652,-0.0710039958357811,-0.962499976158142,1.7324999570846558,-0.2975000143051147
1.9296963888555527,0.0653920024633407,-1.000643968582153,-0.0749079957604408,-1.2424999475479126,1.5225000381469729,-0.2100000083446502
1.9497973929061314,0.0629519969224929,-1.011379957199097,-0.0893040001392364,-1.837499976158142,1.5049999952316284,0.1574999988079071
1.96989839695671,0.0873520001769065,-1.0106480121612549,-0.138835996389389,0.2975000143051147,-0.5074999928474426,0.7524999976158142
1.9899994010072888,0.1190719977021217,-1.0582280158996582,-0.1559159904718399,-2.782500028610229,1.8899999856948853,2.432500123977661
2.0101004050578672,0.1229759976267814,-1.097756028175354,-0.1683599948883056,-1.7675000429153442,4.497499942779541,5.722499847412109
2.0302014091084457,0.0893040001392364,-1.0757960081100464,-0.1466439962387085,3.307500123977661,6.054999828338623,10.710000038146973
2.050302413159024,0.0463600009679794,-1.0338280200958252,-0.1237079948186874,8.085000038146973,5.932499885559082,14.980000495910645
2.0704034172096026,0.0317199975252151,-0.9667279720306396,-0.1132159978151321,12.355000495910645,3.3600001335144043,15.925000190734863
2.090504421260181,0.0156159996986389,-0.9059720039367676,-0.0932080000638961,14.1225004196167,1.0850000381469729,13.212499618530272
2.1106054253107596,-0.0187879987061023,-0.8886479735374451,-0.0732000023126602,12.039999961853027,-1.0850000381469729,9.170000076293944
2.130706429361338,-0.0629519969224929,-0.8923079967498779,-0.0690519958734512,9.572500228881836,-5.477499961853027,4.480000019073486
2.1508074334119165,-0.0863759964704513,-0.901579976081848,-0.0751519948244094,8.890000343322754,-16.047500610351562,-1.9774999618530276
2.170908437462495,-0.0793000012636184,-0.933788001537323,-0.0495319999754428,6.335000038146973,-27.14249992370605,-6.230000019073486
2.1910094415130734,-0.0841799974441528,-0.9789279699325562,-0.0131759997457265,2.677500009536743,-32.619998931884766,-6.317500114440918
2.211110445563652,-0.1124840006232261,-1.0069879293441772,-0.0353799983859062,2.765000104904175,-36.3125,-7.0
2.2312114496142303,-0.134443998336792,-1.0321199893951416,-0.0778359994292259,3.972500085830689,-41.720001220703125,-8.364999771118164
2.251312453664809,-0.047580000013113,-1.1126400232315063,-0.0668559968471527,2.345000028610229,-46.584999084472656,-5.704999923706055
2.2714134577153873,0.0068319998681545,-1.134112000465393,-0.1490840017795562,7.507500171661377,-39.34000015258789,-1.0325000286102295
2.2915144617659657,0.1056519970297813,-1.030900001525879,-0.0824719965457916,15.329999923706056,-34.912498474121094,-0.612500011920929
2.311615465816544,0.1468880027532577,-0.9484279751777648,0.0417240001261234,2.1700000762939453,-21.875,3.745000123977661
2.3317164698671227,0.1285879909992218,-0.9916160106658936,0.0317199975252151,-8.399999618530273,-20.545000076293945,10.797499656677246
2.351817473917701,0.1520119905471801,-1.0213840007781982,-0.002195999957621,-15.399999618530272,-16.99250030517578,19.0575008392334
2.3719184779682796,0.1625040024518966,-1.0296800136566162,-0.0317199975252151,-16.065000534057617,-10.657500267028809,21.700000762939453
2.392019482018858,0.0788119956851005,-0.9657520055770874,-0.0727119967341423,-8.592499732971191,-5.985000133514404,16.8700008392334
2.4121204860694365,0.0304999984800815,-0.9420839548110962,-0.0609999969601631,-4.795000076293945,-7.385000228881836,9.362500190734863
2.432221490120015,-0.0387960001826286,-0.9279319643974304,-0.0119559997692704,1.680000066757202,-9.25749969482422,0.7875000238418579
2.4523224941705934,-0.0971119999885559,-0.937936007976532,0.0046359999105334,6.072500228881836,-15.050000190734863,-7.664999961853027
2.472423498221172,-0.1234639957547187,-0.9501360058784484,-0.0207399986684322,9.520000457763672,-23.852500915527344,-15.557499885559082
2.4925245022717504,-0.1168759986758232,-0.9933239817619324,-0.0258639995008707,11.357500076293944,-35.595001220703125,-21.875
2.512625506322329,-0.0688079968094825,-0.9557479619979858,-0.0639280006289482,15.574999809265137,-44.92250061035156,-26.4950008392334
2.5327265103729073,0.0302559994161129,-0.9918599724769592,-0.0446520000696182,11.550000190734863,-51.52000045776367,-26.774999618530277
2.5528275144234858,0.095891997218132,-1.0284600257873535,-0.0707599967718124,9.484999656677246,-49.97999954223633,-22.399999618530277
2.5729285184740642,0.10589599609375,-0.9972279667854308,-0.0890600010752677,7.735000133514404,-47.022499084472656,-20.002500534057617
2.5930295225246427,0.1105320006608963,-1.013819932937622,-0.085887998342514,1.837499976158142,-42.875,-17.552499771118164
2.613130526575221,0.0888160020112991,-1.013819932937622,-0.0973559990525245,-1.2599999904632568,-38.67499923706055,-14.192500114440918
2.6332315306257996,0.0570959970355033,-0.9874680042266846,-0.1112639978528022,-4.199999809265137,-34.82500076293945,-11.44499969482422
2.653332534676378,0.0670999959111213,-1.0940959453582764,-0.1266359984874725,-7.980000019073486,-35.0525016784668,-8.085000038146973
2.6734335387269565,0.0505079999566078,-1.1394799947738647,-0.2813319861888885,2.782500028610229,-20.895000457763672,-8.819999694824219
2.693534542777535,0.0639280006289482,-1.0104039907455444,-0.1815359890460968,16.940000534057617,-10.46500015258789,-11.0600004196167
2.7136355468281135,0.0751519948244094,-0.9628239870071412,-0.2627879977226257,13.859999656677246,-10.02750015258789,-10.482500076293944
2.733736550878692,0.065880000591278,-0.9235399961471558,-0.2100839912891388,17.622499465942383,-13.912500381469728,-11.357500076293944
2.7538375549292704,0.0019519999623298,-0.9520879983901978,-0.201787993311882,15.207500457763672,-15.067500114440918,-11.30500030517578
2.773938558979849,-0.0563639998435974,-0.9606279730796814,-0.1749479919672012,13.282500267028809,-20.96500015258789,-9.135000228881836
2.7940395630304273,-0.0871080011129379,-1.0082080364227295,-0.1551840007305145,8.295000076293945,-28.332500457763672,-6.247499942779541
2.814140567081006,-0.1176079958677291,-0.8527799844741821,-0.1542080044746399,10.220000267028809,-36.62749862670898,-4.445000171661377
2.8342415711315843,-0.1000399962067604,-0.8793759942054749,-0.1642120033502578,-3.5174999237060547,-46.935001373291016,-5.039999961853027
2.8543425751821627,0.0043919999152421,-1.144115924835205,-0.0780799984931945,-16.852500915527344,-53.3224983215332,-3.4649999141693115
2.874443579232741,0.0722239986062049,-1.1714439392089844,-0.0990639999508857,-3.5174999237060547,-54.07500076293945,0.4200000166893005
2.8945445832833196,0.0724679976701736,-0.9318360090255736,-0.0880839973688125,12.880000114440918,-56.227500915527344,1.1725000143051147
2.914645587333898,0.0402599982917308,-0.7864120006561279,-0.1212679967284202,8.907500267028809,-55.19499969482422,0.6650000214576721
2.9347465913844766,0.0214719995856285,-0.8059319853782654,-0.1481079906225204,-2.257499933242798,-53.619998931884766,0.0350000001490116
2.954847595435055,0.0109799997881054,-0.7929999828338623,-0.201787993311882,-7.664999961853027,-48.352500915527344,-0.7875000238418579
2.9749485994856335,0.0165919996798038,-0.8649799823760986,-0.2500999867916107,-16.065000534057617,-43.57500076293945,-1.8899999856948853
2.995049603536212,0.05197199806571,-0.9486719965934752,-0.2608360052108764,-22.207500457763672,-40.040000915527344,-1.5750000476837158
3.0151506075867904,0.1400559991598129,-1.1885240077972412,-0.2271640002727508,-28.21000099182129,-34.29999923706055,1.924999952316284
3.035251611637369,0.2464399933815002,-1.4049519300460815,-0.1444479972124099,-17.010000228881836,-25.5674991607666,11.392499923706056
3.0553526156879474,0.2418039888143539,-1.4791280031204224,-0.1542080044746399,5.355000019073486,-8.452500343322754,26.75749969482422
3.075453619738526,0.1715319901704788,-1.2758759260177612,-0.1905639916658401,33.11000061035156,5.635000228881836,45.8849983215332
3.0955546237891043,0.2027639895677566,-1.0130879878997805,-0.1461559981107711,46.98749923706055,14.332500457763672,61.19750213623047
3.1156556278396828,0.5702279806137085,-0.8049559593200684,0.0319640003144741,49.78749847412109,9.572500228881836,59.46500015258789
3.135756631890261,0.5941399931907654,-0.6056079864501953,-0.2027639895677566,34.404998779296875,10.692500114440918,41.1775016784668
3.1558576359408397,-0.2561999857425689,-1.1009279489517212,0.0456280000507831,-13.510000228881836,80.88500213623047,25.795000076293945
3.175958639991418,-0.2186239957809448,-1.3036919832229614,0.1464000046253204,-11.00749969482422,35.209999084472656,22.487499237060547
3.1960596440419966,-0.1642120033502578,-1.2451319694519043,0.2144759893417358,4.375,20.299999237060547,11.287500381469728
3.216160648092575,0.0592919997870922,-1.030411958694458,0.1754359900951385,18.82999992370605,-5.284999847412109,-14.420000076293944
3.2362616521431535,0.2500999867916107,-0.8774240016937256,0.1207799986004829,15.627500534057615,-9.904999732971191,-31.815000534057617
3.256362656193732,0.4174839854240417,-1.032364010810852,0.115167997777462,-9.397500038146973,-6.090000152587891,-32.91749954223633
3.2764636602443105,0.508251965045929,-1.154852032661438,-0.0331839993596077,-29.76749992370605,-4.585000038146973,-24.114999771118164
3.296564664294889,0.3494080007076263,-1.1048319339752195,-0.0514839999377727,-32.70750045776367,14.350000381469728,-13.142499923706056
3.3166656683454674,0.0856439992785453,-0.954039990901947,0.0297679994255304,-30.817501068115234,31.149999618530277,-14.0
3.336766672396046,-0.0078079998493194,-0.8979200124740601,0.0690519958734512,-29.46999931335449,19.40749931335449,-20.57999992370605
3.3568676764466243,-0.134443998336792,-0.8330159783363342,0.0890600010752677,-28.2450008392334,12.1274995803833,-25.00749969482422
3.376968680497203,-0.1305399984121322,-0.7681120038032532,0.0683199986815452,-24.604999542236328,-11.795000076293944,-23.274999618530277
3.3970696845477812,-0.0988200008869171,-0.7066239714622498,0.0919879972934722,-23.1875,-18.655000686645508,-12.162500381469728
3.4171706885983597,-0.003171999938786,-0.7829959988594055,0.0490439981222152,-27.825000762939453,-21.6825008392334,-1.627500057220459
3.437271692648938,0.0946719944477081,-0.9113399982452391,0.0175679996609687,-24.342500686645508,-23.170000076293945,8.102499961853027
3.4573726966995166,0.2127679884433746,-0.9943000078201294,-0.0190319996327161,-14.962499618530272,-23.729999542236328,17.517499923706055
3.477473700750095,0.3137840032577514,-1.0396839380264282,-0.0165919996798038,-10.482500076293944,-19.915000915527344,26.82749938964844
3.4975747048006736,0.34647998213768,-1.1748600006103516,-0.0085399998351931,-10.744999885559082,-6.28249979019165,32.567501068115234
3.517675708851252,0.3289119899272918,-1.1909639835357666,-0.0234239995479583,1.3825000524520874,13.720000267028809,34.52750015258789
3.5377767129018305,0.2483920007944107,-1.1148359775543213,-0.041967999190092,16.712499618530273,33.23250198364258,35.122501373291016
3.557877716952409,0.1722639948129654,-1.089460015296936,-0.0483120009303092,24.149999618530277,45.8849983215332,32.165000915527344
3.5779787210029874,0.0990639999508857,-1.0474920272827148,-0.075883999466896,27.15999984741211,50.29500198364258,26.18000030517578
3.598079725053566,0.0385520011186599,-0.9891759753227234,-0.0741759985685348,25.112499237060547,52.32500076293945,22.207500457763672
3.6181807291041443,-0.0100039998069405,-0.9450119733810424,-0.0768599957227706,15.662500381469728,54.11000061035156,19.31999969482422
3.638281733154723,-0.0124439997598528,-0.92085599899292,-0.0975999981164932,6.492499828338623,48.84249877929688,18.987499237060547
3.6583827372053013,-0.006343999877572,-0.9128040075302124,-0.1010159999132156,-1.0674999952316284,43.68000030517578,18.024999618530277
3.6784837412558797,0.0092719998210668,-0.9184159636497498,-0.1107759997248649,-7.122499942779541,39.532501220703125,18.09499931335449
3.698584745306458,0.0056119998916983,-0.9372040033340454,-0.1407880038022995,-10.02750015258789,39.375,21.38500022888184
3.7186857493570367,-0.006343999877572,-0.9923479557037354,-0.1568920016288757,-9.029999732971191,38.0625,24.727500915527344
3.738786753407615,0.0363559983670711,-0.95306396484375,-0.1937360018491745,-2.8350000381469727,35.17499923706055,28.47249984741211
3.7588877574581936,0.1024799942970275,-1.1053199768066406,-0.2469279915094375,-13.387499809265137,31.395000457763672,24.184999465942383
3.778988761508772,-0.0153719997033476,-1.1797399520874023,-0.2630319893360138,-13.212499618530272,36.470001220703125,13.720000267028809
3.7990897655593505,-0.3040239810943603,-1.1228879690170288,-0.1139479950070381,-2.0299999713897705,46.025001525878906,5.179999828338623
3.819190769609929,-0.3240320086479187,-0.8966999650001526,-0.1210239976644516,17.90250015258789,31.552499771118164,9.327500343322754
3.8392917736605074,-0.375027984380722,-0.7783600091934204,-0.1022359952330589,16.852500915527344,22.732500076293945,18.287500381469727
3.859392777711086,-0.521183967590332,-0.9115839600563048,-0.0402599982917308,-5.197500228881836,16.450000762939453,28.979999542236328
3.8794937817616644,-0.3476999998092651,-1.146799921989441,-0.0680759996175766,-19.11000061035156,-4.497499942779541,11.567500114440918
3.899594785812243,-0.210327997803688,-1.1043440103530884,-0.0997959971427917,-8.75,-15.942500114440918,-8.767499923706055
3.9196957898628213,-0.1478639990091323,-0.9264679551124572,0.032940000295639,2.2049999237060547,-21.489999771118164,-12.3725004196167
3.9397967939133998,-0.1154119968414306,-0.9152439832687378,0.1019919961690902,-4.112500190734863,-23.030000686645508,-5.617499828338623
3.9598977979639782,-0.0785679966211319,-1.0479799509048462,0.1915400028228759,-12.792500495910645,-27.895000457763672,-2.065000057220459
3.9799988020145567,-0.0273279994726181,-1.1494839191436768,0.2186239957809448,-11.619999885559082,-24.184999465942383,0.9275000095367432
4.000099806065135,-0.0431879982352256,-1.1328920125961304,0.1549399942159652,-0.0525000020861625,-11.4975004196167,4.917500019073486
4.020200810115714,-0.0624639987945556,-1.0918999910354614,0.1322479993104934,12.18000030517578,-3.4124999046325684,8.067500114440918
4.040301814166293,-0.0912560001015663,-1.0596920251846311,0.1246839985251426,19.31999969482422,5.827499866485596,13.404999732971191
4.060402818216872,-0.1766559928655624,-1.0333399772644043,0.0975999981164932,20.49250030517578,16.1875,18.1825008392334
4.080503822267451,-0.2108159959316253,-0.9803919792175292,0.1180959939956665,21.665000915527344,14.822500228881836,19.600000381469727
4.10060482631803,-0.1610399931669235,-0.9401319622993468,0.095160000026226,20.59749984741211,10.43000030517578,19.950000762939453
4.120705830368609,-0.0697840005159378,-0.9513559937477112,0.0605119988322258,12.407500267028809,7.525000095367432,17.325000762939453
4.1408068344191875,-0.0583159998059272,-0.9264679551124572,0.0414799973368644,5.389999866485596,13.212499618530272,15.050000190734863
4.160907838469766,-0.0631959959864616,-0.9128040075302124,0.0649039968848228,5.215000152587891,18.76000022888184,14.524999618530272
4.181008842520345,-0.1703120023012161,-0.9269559979438782,0.0204959996044635,10.079999923706056,25.14750099182129,15.697500228881836
4.201109846570924,-0.2696200013160705,-0.8486319780349731,0.0087839998304843,14.36750030517578,24.237499237060547,12.61750030517578
4.221210850621503,-0.3057319819927215,-0.9252479672431946,0.0258639995008707,7.349999904632568,14.664999961853027,8.6274995803833
4.241311854672082,-0.2925559878349304,-0.9381799697875975,0.0097599998116493,7.612500190734863,8.119999885559082,4.690000057220459
4.261412858722661,-0.2527839839458465,-0.9147560000419616,0.0151279997080564,7.052500247955322,0.2800000011920929,2.240000009536743
4.28151386277324,-0.2254559993743896,-0.909875988960266,0.0187879987061023,2.0824999809265137,-5.512499809265137,1.6100000143051147
4.301614866823819,-0.1895879954099655,-0.9262239933013916,0.0141519997268915,-3.289999961853028,-10.307499885559082,2.012500047683716
4.321715870874398,-0.1720200031995773,-0.958675980567932,0.0143959997221827,-8.015000343322754,-13.230000495910645,2.065000057220459
4.341816874924977,-0.1808039993047714,-0.995519995689392,0.0278159994632005,-9.65999984741211,-13.09000015258789,2.1875
4.3619178789755555,-0.2037400007247924,-0.9916160106658936,0.0239119995385408,-6.684999942779541,-12.1274995803833,3.202500104904175
4.382018883026134,-0.1866599917411804,-0.954039990901947,0.0344039984047412,-5.267499923706055,-13.702500343322754,2.992500066757202
4.402119887076713,-0.1954440027475357,-0.9396439790725708,0.0258639995008707,-6.422500133514404,-11.287500381469728,3.430000066757202
4.422220891127292,-0.2005679905414581,-0.9220759868621826,0.0370879992842674,-7.822500228881836,-10.692500114440918,2.5199999809265137
4.442321895177871,-0.1969079971313476,-0.9081679582595824,0.0480679981410503,-11.6899995803833,-11.6899995803833,0.2975000143051147
4.46242289922845,-0.1944679915904998,-0.8993839621543884,0.052216000854969,-15.925000190734863,-12.8100004196167,-2.5199999809265137
4.482523903279029,-0.2012999951839447,-0.8979200124740601,0.0568519979715347,-19.72249984741211,-13.422499656677246,-5.337500095367432
4.502624907329608,-0.20032399892807,-0.9162200093269348,0.0392839983105659,-21.01749992370605,-13.772500038146973,-9.957500457763672
4.522725911380187,-0.1978839933872223,-0.944279968738556,0.090279996395111,-19.4424991607666,-12.862500190734863,-15.329999923706056
4.542826915430766,-0.1561599969863891,-0.9674599766731262,0.1161440014839172,-20.5625,-11.287500381469728,-19.774999618530277
4.562927919481345,-0.1217559948563575,-0.9594079852104188,0.1229759976267814,-20.94750022888184,-8.8725004196167,-23.082500457763672
4.5830289235319235,-0.1015039980411529,-0.9686799645423888,0.1568920016288757,-19.11000061035156,-9.5024995803833,-24.727500915527344
4.603129927582502,-0.1239520013332367,-0.9723399877548218,0.1966639906167984,-15.225000381469728,-9.239999771118164,-24.989999771118164
4.623230931633081,-0.152988001704216,-0.9852719902992249,0.2310680001974105,-14.244999885559082,-7.175000190734863,-22.872499465942383
4.64333193568366,-0.1634799987077713,-1.0326080322265625,0.2313119918107986,-17.43000030517578,-6.054999828338623,-20.05500030517578
4.663432939734239,-0.1815359890460968,-1.0762839317321775,0.2444880008697509,-18.88249969482422,-5.914999961853027,-20.63249969482422
4.683533943784818,-0.4177280068397522,-1.2085319757461548,0.1227319985628128,-19.11000061035156,-2.677500009536743,-22.71500015258789
4.703634947835397,-0.6568480134010315,-1.3329719305038452,-0.5446079969406128,-24.920000076293945,2.414999961853028,-12.65250015258789
4.723735951885976,-0.4953199923038482,-1.83707594871521,-0.7056480050086975,-39.23500061035156,-20.440000534057617,-3.202500104904175
4.743836955936555,-0.3608759939670563,-1.6814039945602417,0.0739319995045661,7.087500095367432,-82.54750061035156,5.320000171661377
4.763937959987134,-0.3372080028057098,-1.1426520347595217,0.2888959944248199,36.470001220703125,-93.4499969482422,5.144999980926514
4.784038964037713,-0.2764520049095154,-0.8188639879226685,-0.0878399983048439,39.63750076293945,-76.58000183105469,-11.952500343322754
4.8041399680882915,0.1254159957170486,-0.4374919831752777,-0.2422920018434524,48.19499969482422,-77.38500213623047,-43.837501525878906
4.82424097213887,0.3372080028057098,-0.2374119907617569,-0.4187040030956268,11.585000038146973,-61.932498931884766,-51.88750076293945
4.844341976189449,0.1158999949693679,-0.6512359976768494,-0.4567679762840271,-61.057498931884766,-16.292499542236328,-27.71999931335449
4.864442980240028,-0.0536799989640712,-1.348099946975708,-0.1947119981050491,-84.05249786376953,-11.234999656677246,-10.307499885559082
4.884543984290607,-0.2757200002670288,-1.4086120128631592,-0.1385920047760009,-24.237499237060547,-24.79750061035156,-13.230000495910645
4.904644988341186,-0.2998760044574737,-1.0640839338302612,-0.2383880019187927,24.552499771118164,-57.81999969482422,-19.02250099182129
4.924745992391765,-0.1866599917411804,-0.7922679781913757,-0.2930440008640289,26.530000686645508,-76.51000213623047,-18.864999771118164
4.944846996442344,-0.052947998046875,-0.9459879994392396,-0.2020319998264312,3.569999933242798,-77.1050033569336,-20.982500076293945
4.964948000492923,-0.0317199975252151,-0.9799039959907532,-0.1851959973573684,-13.0024995803833,-63.94499969482422,-39.27000045776367
4.985049004543502,-0.0605119988322258,-0.97599995136261,-0.1851959973573684,-11.532500267028809,-60.98749923706055,-44.397499084472656
5.0051500085940805,-0.0641719996929168,-0.8630279898643494,-0.1688479930162429,-8.837499618530273,-62.70249938964844,-42.27999877929688
5.0252510126446595,-0.0107359997928142,-0.8405799865722656,-0.1549399942159652,-14.875,-64.01499938964844,-35.279998779296875
5.045352016695238,0.042943999171257,-0.8835240006446838,-0.157379999756813,-21.40250015258789,-65.13500213623047,-29.52250099182129
5.065453020745817,0.130295991897583,-0.9123159646987916,-0.1454239934682846,-21.489999771118164,-67.74250030517578,-29.225000381469727
5.085554024796396,0.1749479919672012,-0.8788880109786987,-0.1298079937696457,-18.864999771118164,-63.27999877929688,-30.8700008392334
5.105655028846975,0.1607960015535354,-0.8810839653015137,-0.1049199998378753,-20.94750022888184,-55.22999954223633,-30.34499931335449
5.125756032897554,0.0771040022373199,-0.9515999555587769,-0.1024799942970275,-22.592500686645508,-45.20249938964844,-25.549999237060547
5.145857036948133,0.075883999466896,-0.9803919792175292,-0.0749079957604408,-15.907500267028809,-44.869998931884766,-19.670000076293945
5.165958040998712,0.065880000591278,-0.9215880036354064,-0.0512399971485137,-6.965000152587891,-40.494998931884766,-14.5600004196167
5.186059045049291,0.0695400014519691,-0.8303319811820984,-0.0344039984047412,-3.5350000858306885,-38.51750183105469,-10.6225004196167
5.20616004909987,0.0639280006289482,-0.8191080093383789,-0.047335997223854,-7.227499961853027,-33.67000198364258,-4.252500057220459
5.2262610531504485,0.0509959980845451,-0.8654679656028748,-0.0405040010809898,-10.0625,-30.380001068115234,3.3600001335144043
5.246362057201027,0.0663679987192154,-0.9027999639511108,0.0153719997033476,-6.002500057220459,-31.850000381469727,8.802499771118164
5.266463061251606,0.0968680009245872,-0.8862079977989197,0.0258639995008707,-1.1200000047683716,-33.915000915527344,12.197500228881836
5.286564065302185,0.1805599927902221,-0.9350079894065856,-0.0651479959487915,-3.867500066757202,-34.772499084472656,17.27250099182129
5.306665069352764,0.2915799915790558,-0.9855159521102904,-0.1405439972877502,-7.385000228881836,-30.32749938964844,17.674999237060547
5.326766073403343,0.4165079891681671,-1.1372839212417605,-0.1825120002031326,-11.619999885559082,-23.362499237060547,8.417500495910645
5.346867077453922,0.3391599953174591,-1.145823955535889,-0.4482280015945434,-5.827499866485596,6.230000019073486,0.2100000083446502
5.366968081504501,-0.0092719998210668,-1.2353719472885132,0.0141519997268915,2.117500066757202,49.087501525878906,-3.0274999141693115
5.38706908555508,-0.0414799973368644,-1.3151599168777466,0.1351760029792785,1.5399999618530271,15.050000190734863,-13.947500228881836
5.407170089605659,-0.1656759977340698,-1.391044020652771,0.1939799934625625,17.674999237060547,-3.4124999046325684,-27.842500686645508
5.427271093656238,-0.3689279854297638,-1.1009279489517212,0.2242359966039657,45.1150016784668,-25.34000015258789,-28.752500534057617
5.4473720977068165,-0.2657159864902496,-0.7712839841842651,-0.1112639978528022,32.27000045776367,-60.44499969482422,-18.864999771118164
5.467473101757395,0.1525000035762787,-1.035048007965088,-0.3882039785385132,-15.190000534057615,-80.18499755859375,-9.1875
5.487574105807974,0.1459119915962219,-1.4637559652328491,-0.5275279879570007,-28.192501068115234,-49.665000915527344,0.2275000065565109
5.507675109858553,0.4635999798774719,-1.4822999238967896,-0.3574599921703338,-5.09250020980835,-39.39250183105469,-12.862500190734863
5.527776113909132,0.9318360090255736,-1.368839979171753,-0.5492439866065979,-1.225000023841858,-92.38249969482422,-84.03500366210938
5.547877117959711,0.6609959602355957,-1.0084519386291504,-0.3711239993572235,21.36750030517578,-11.9350004196167,-122.69249725341795
5.56797812201029,-0.5407040119171143,-0.4431039988994598,-0.3638039827346802,30.309999465942383,50.85499954223633,40.72249984741211
5.588079126060869,-0.2759639918804168,-0.7046719789505005,-0.310368001461029,-0.7875000238418579,7.647500038146973,35.57749938964844
5.608180130111448,-0.0251320004463195,-0.946720004081726,-0.236191987991333,-6.860000133514404,10.587499618530272,36.13750076293945
5.628281134162027,0.2720600068569183,-1.0848239660263062,-0.2432679980993271,7.892499923706055,-1.190000057220459,31.71000099182129
5.648382138212606,0.3323279917240143,-1.077991962432861,-0.224480003118515,19.0049991607666,15.942500114440918,22.645000457763672
5.6684831422631845,0.2452199906110763,-1.0055240392684937,-0.2086199969053268,30.22249984741211,34.685001373291016,14.752500534057615
5.688584146313763,0.0929640009999275,-0.9228079915046692,-0.2171600013971328,43.470001220703125,46.68999862670898,15.505000114440918
5.708685150364342,-0.0795440003275871,-0.9128040075302124,-0.3050000071525574,32.84749984741211,58.01250076293945,25.690000534057617
5.728786154414921,-0.1317600011825561,-0.974291980266571,-0.280599981546402,12.6875,55.45750045776367,33.057498931884766
5.7488871584655,-0.0578279979526996,-1.0011320114135742,-0.1930039972066879,8.295000076293945,46.68999862670898,35.42000198364258
5.768988162516079,-0.0407480001449584,-0.9132919907569884,-0.1612839996814727,12.739999771118164,47.23250198364258,38.86750030517578
5.789089166566658,-0.0007319999858736,-0.8769359588623047,-0.1512800008058548,12.512499809265137,44.60750198364258,42.70000076293945
5.809190170617237,0.0300120003521442,-0.9852719902992249,-0.1361519992351532,13.037500381469728,46.51499938964844,43.38249969482422
5.829291174667816,0.0368440002202987,-1.0945839881896973,-0.1256600022315979,23.15250015258789,49.70000076293945,39.74250030517578
5.849392178718395,0.0536799989640712,-1.0201640129089355,-0.10589599609375,40.810001373291016,54.28499984741211,36.2599983215332
5.869493182768974,0.0817399993538856,-0.8298439979553223,-0.0746639966964721,50.084999084472656,60.91749954223633,32.182498931884766
5.8895941868195525,0.0541680008172988,-0.7644519805908203,-0.0468479990959167,40.95000076293945,70.7699966430664,26.38999938964844
5.909695190870131,0.0019519999623298,-0.7617679834365845,-0.0207399986684322,27.5625,74.69000244140625,20.614999771118164
5.92979619492071,-0.0651479959487915,-0.7588399648666382,0.0121999997645616,15.417500495910645,74.74250030517578,14.875
5.949897198971289,-0.0717360004782676,-0.7851920127868652,0.0307439994066953,4.322500228881836,67.55000305175781,12.442500114440918
5.969998203021868,-0.0588039979338645,-0.8508279919624329,0.0414799973368644,-6.527500152587891,60.39250183105469,9.800000190734863
5.990099207072447,-0.0580720007419586,-0.8464359641075134,0.0614879988133907,-9.100000381469728,55.282501220703125,7.699999809265137
6.010200211123026,-0.0422119982540607,-0.8169119954109192,0.0783239975571632,-10.90250015258789,50.27750015258789,7.735000133514404
6.030301215173605,-0.042943999171257,-0.7734799981117249,0.0914999991655349,-13.282500267028809,47.67000198364258,6.5625
6.050402219224184,-0.1246839985251426,-0.7990999817848206,0.0097599998116493,-24.342500686645508,45.9900016784668,4.480000019073486
6.070503223274763,-0.2166720032691955,-0.933788001537323,-0.0595359988510608,-35.89250183105469,42.75249862670898,6.125
6.090604227325342,-0.2444880008697509,-1.1504600048065186,-0.0300120003521442,-38.39500045776367,33.057498931884766,14.0
6.1107052313759205,-0.2752319872379303,-1.208043932914734,-0.0151279997080564,-20.33500099182129,21.542499542236328,16.799999237060547
6.130806235426499,-0.0900359973311424,-1.1231319904327393,-0.052947998046875,-5.617499828338623,-6.772500038146973,18.252500534057617
6.150907239477078,0.0822279974818229,-1.097267985343933,-0.1100439950823783,3.307500123977661,-14.140000343322754,19.25
6.171008243527657,0.1610399931669235,-0.859611988067627,0.2015440016984939,34.93000030517578,37.08250045776367,11.40999984741211
6.191109247578236,0.0954039990901947,-1.0396839380264282,0.0854000002145767,15.015000343322754,63.244998931884766,19.98500061035156
6.211210251628815,0.0375759974122047,-1.3993399143218994,-0.1268799901008606,-1.6449999809265137,83.4749984741211,29.90749931335449
6.231311255679394,-0.0954039990901947,-1.4959639310836792,0.1278560012578964,29.924999237060547,95.0250015258789,23.8174991607666
6.251412259729973,-0.30621999502182,-1.0169919729232788,0.4858039915561676,63.244998931884766,90.2125015258789,28.717500686645508
6.271513263780552,-0.268887996673584,-0.8125199675559998,0.201787993311882,36.837501525878906,72.9749984741211,47.67000198364258
6.291614267831131,-0.4684799909591675,-0.4104079902172088,-0.4201679825782776,37.17000198364258,107.15250396728516,43.61000061035156
6.3117152718817096,-0.4701879918575287,-0.1154119968414306,-0.3945479989051819,35.560001373291016,94.5875015258789,40.21500015258789
6.3318162759322885,-0.2879199981689453,-1.0213840007781982,-0.3862519860267639,-36.435001373291016,69.8949966430664,39.567501068115234
6.351917279982867,0.0353799983859062,-2.036423921585083,-0.2359479963779449,-29.575000762939453,25.5674991607666,43.557498931884766
6.372018284033446,0.2169159948825836,-2.02593207359314,-0.6051200032234192,75.18000030517578,-7.454999923706055,12.407500267028809
6.392119288084025,-0.2432679980993271,-0.8518039584159851,-0.7903159856796265,118.31749725341795,87.51750183105469,-49.45500183105469
6.412220292134604,-0.1254159957170486,-1.0928759574890137,-0.4330999851226806,15.8725004196167,29.81999969482422,-43.24250030517578
6.432321296185183,-0.391864001750946,-1.7768080234527588,-0.4884879887104034,-55.02000045776367,-2.6424999237060547,-50.540000915527344
6.452422300235762,-0.7925119996070862,-2.289451837539673,-0.4416399896144867,-68.7925033569336,-4.235000133514404,-56.665000915527344
6.472523304286341,-0.6983279585838318,-2.391443967819214,-0.3374519944190979,-36.18999862670898,-71.81999969482422,-94.34249877929688
6.49262430833692,-0.0212280005216598,-2.183799982070923,-0.2593719959259033,-5.144999980926514,-94.0625,-136.79750061035156
6.512725312387499,0.6824679970741272,-2.154520034790039,-0.2469279915094375,-22.27750015258789,-142.3975067138672,-140.4199981689453
6.5328263164380775,1.108247995376587,-1.9702999591827397,-0.3557519912719726,-42.9275016784668,-150.7624969482422,-169.43499755859375
6.5529273204886564,0.7605479955673218,-1.983232021331787,-0.4836079776287079,-68.12750244140625,-2.309999942779541,-158.28750610351562
6.573028324539235,0.0309880003333091,-1.627479910850525,-0.5516839623451233,-69.59750366210938,57.837501525878906,-112.9625015258789
6.593129328589814,-0.4718959927558899,-1.1873040199279783,-0.536799967288971,-19.26749992370605,77.19249725341797,-67.25250244140625
6.613230332640393,-0.4738479852676391,-0.5031279921531677,0.0619760006666183,48.352500915527344,14.612500190734863,57.61000061035156
6.633331336690972,-0.4260239899158478,-0.0653920024633407,-0.0046359999105334,31.692501068115234,-2.5374999046325684,160.16000366210938
6.653432340741551,-0.1283439993858337,0.104432001709938,-0.0082959998399019,34.369998931884766,-27.299999237060547,117.9499969482422
6.67353334479213,0.3947919905185699,-0.010491999797523,0.2579079866409302,41.86000061035156,-82.37249755859375,40.810001373291016
6.693634348842709,0.5980439782142639,-0.1954440027475357,-0.0363559983670711,32.3224983215332,-92.94249725341795,-24.27250099182129
6.713735352893288,0.753715991973877,-0.230335995554924,-0.1590880006551742,75.12750244140625,-28.315000534057617,-57.032501220703125
6.733836356943867,0.4836079776287079,0.0097599998116493,0.046604000031948,117.05750274658205,83.16000366210938,-14.962499618530272
6.7539373609944455,0.1417640000581741,0.2027639895677566,0.1093119978904724,108.79750061035156,105.19249725341795,24.63999938964844
6.774038365045024,-0.7139439582824707,0.1644559949636459,0.0932080000638961,38.83250045776367,121.55500030517578,84.7874984741211
6.794139369095603,-0.5587599873542786,0.0395279973745346,0.1066280007362365,6.772500038146973,11.760000228881836,84.99749755859375
6.814240373146182,-0.2208199948072433,-0.0346480011940002,0.0270840004086494,-2.240000009536743,-6.40500020980835,39.8125
6.834341377196761,0.1310279965400695,-0.0119559997692704,-0.0290360003709793,-0.6299999952316284,-39.98749923706055,26.792499542236328
6.85444238124734,0.1844639927148819,-0.0985759943723678,-0.1668960005044937,-3.4649999141693115,-34.09000015258789,23.852500915527344
6.874543385297919,0.2871879935264587,-0.1454239934682846,0.0068319998681545,-0.8224999904632568,-27.77250099182129,15.890000343322754
6.894644389348498,0.4389559924602508,-0.1010159999132156,-0.2610799968242645,4.777500152587891,-33.07500076293945,13.49250030517578
6.914745393399077,0.4596959948539734,0.1378600001335144,-0.5592479705810547,19.6875,-12.6875,-1.2074999809265137
6.934846397449656,0.2630319893360138,0.301827996969223,-0.3015840053558349,11.84749984741211,69.35250091552734,-10.447500228881836
6.954947401500235,0.0146399997174739,-0.2559559941291809,-1.0596920251846311,-40.1974983215332,116.32250213623048,4.952499866485596
6.9750484055508135,-0.5797439813613892,-1.3903119564056396,-1.8280479907989504,-114.625,230.52749633789065,6.720000267028809
6.995149409601392,-1.6531000137329102,-5.089839935302734,-0.6441599726676941,-216.3699951171875,297.2724914550781,-4.130000114440918
7.015250413651971,-1.2353719472885132,-5.690812110900879,1.001376032829285,-64.81999969482422,-23.887500762939453,-8.050000190734863
7.03535141770255,-0.9393999576568604,-3.286191940307617,0.4104079902172088,33.7400016784668,-108.02750396728516,61.19750213623047
7.055452421753129,-0.5314319729804993,-1.5042599439620972,0.1810479909181594,90.77249908447266,-125.16000366210938,41.82500076293945
7.075553425803708,0.1420079916715622,-1.600883960723877,0.2808440029621124,-9.99250030517578,-125.4749984741211,6.755000114440918
7.095654429854287,0.3325719833374023,-1.3515160083770752,-0.2910920083522796,-33.28499984741211,-71.33000183105469,3.5174999237060547
7.115755433904866,-0.3816159963607788,-1.3598120212554932,-1.2822200059890747,-84.91000366210938,39.30500030517578,22.01499938964844
7.135856437955445,-0.3733199834823608,-3.1576039791107178,1.0604239702224731,-155.2425079345703,-8.34749984741211,15.592499732971191
7.155957442006024,-0.2513200044631958,-2.563463926315308,-0.5970680117607117,-48.05500030517578,-41.70249938964844,10.9375
7.176058446056603,0.1664080023765564,-1.15094792842865,-0.0068319998681545,104.2125015258789,-60.8650016784668,-6.474999904632568
7.1961594501071815,0.8925519585609436,-0.7249239683151245,-0.1837320029735565,105.0875015258789,-96.02249908447266,-41.10750198364258
7.21626045415776,0.8618080019950867,0.1903200000524521,-0.6143919825553894,121.46749877929688,-67.7074966430664,-128.32749938964844
7.236361458208339,1.2795360088348389,-0.7861679792404175,-0.3564839959144592,-22.802499771118164,97.49250030517578,103.05750274658205
7.256462462258918,-2.2670040130615234,0.6158559918403625,-0.6858839988708496,230.0200042724609,80.76249694824219,467.302490234375
7.276563466309497,0.4965399801731109,0.6139039993286133,-1.0152839422225952,570.4824829101562,-251.5625,-48.82500076293945
7.296664470360076,0.009515999816358,2.6293439865112305,-0.2088640034198761,550.7949829101562,-165.91749572753906,-124.49500274658205
7.316765474410655,-0.2513200044631958,1.1416759490966797,-0.5360679626464844,34.42250061035156,62.125,-39.7599983215332
7.336866478461234,-0.4047960042953491,-1.1228879690170288,-0.4623799920082092,-447.68499755859375,75.18000030517578,-94.51750183105467
7.356967482511813,-0.9916160106658936,-3.041703939437866,-0.2679120004177093,-551.8099975585938,-11.234999656677246,-233.1875
7.377068486562392,0.175924003124237,-3.3093719482421875,0.8425319790840149,-160.7725067138672,-65.64250183105469,-207.51499938964844
7.397169490612971,0.0910120010375976,-1.6374839544296265,0.4538399875164032,122.88500213623048,-8.260000228881836,-46.182498931884766
7.4172704946635495,0.2652280032634735,-1.1582679748535156,0.4579879939556122,43.01499938964844,-29.03249931335449,15.137499809265137
7.437371498714128,-0.1271239966154098,-1.5418360233306885,0.3223240077495575,-31.184999465942383,2.380000114440918,64.6624984741211
7.457472502764707,-0.297679990530014,-1.070915937423706,0.2052039951086044,27.59749984741211,3.569999933242798,50.977500915527344
7.477573506815286,-0.3254959881305694,-0.7166280150413513,0.10589599609375,39.40999984741211,10.1850004196167,42.4375
7.497674510865865,-0.2888959944248199,-0.7886079549789429,0.1407880038022995,13.789999961853027,6.772500038146973,30.04750061035156
7.517775514916444,-0.1627479940652847,-0.7102839946746826,0.104432001709938,19.65250015258789,6.230000019073486,23.8700008392334
7.537876518967023,-0.0261080004274845,-0.5316759943962097,0.0427000001072883,25.042499542236328,9.11750030517578,28.350000381469727
7.557977523017602,-0.0597799979150295,-0.5550999641418457,0.0670999959111213,4.112500190734863,14.4375,36.505001068115234
7.578078527068181,-0.191783994436264,-0.7476159930229187,0.1986159980297088,-17.219999313354492,8.662500381469727,33.810001373291016
7.59817953111876,-0.3174439966678619,-0.9201239943504332,0.2686440050601959,-20.352500915527344,-2.6424999237060547,20.33500099182129
7.618280535169339,-0.4138239920139313,-0.9713639616966248,0.2410719990730285,-8.329999923706055,-14.647500038146973,5.074999809265137
7.6383815392199175,-0.4623799920082092,-0.9162200093269348,0.2149640023708343,6.335000038146973,-26.774999618530277,-3.4124999046325684
7.658482543270496,-0.4074800014495849,-0.9123159646987916,0.1708000004291534,8.557499885559082,-38.220001220703125,-6.387499809265137
7.678583547321075,-0.3096359968185425,-0.9235399961471558,0.1727519929409027,6.072500228881836,-45.60499954223633,-6.772500038146973
7.698684551371654,-0.2012999951839447,-0.9076799750328064,0.1686040014028549,3.3600001335144043,-45.76250076293945,-3.447499990463257
7.718785555422233,-0.1156559959053993,-0.908411979675293,0.1507920026779174,1.0850000381469729,-39.39250183105469,2.5374999046325684
7.738886559472812,-0.0595359988510608,-0.9313479661941528,0.183243989944458,-1.5225000381469729,-28.82250022888184,5.635000228881836
7.758987563523391,-0.0392839983105659,-0.9420839548110962,0.224723994731903,-3.325000047683716,-17.6924991607666,4.392499923706055
7.77908856757397,-0.0929640009999275,-0.9091439843177797,0.2117919921875,-4.742499828338623,-4.934999942779541,2.4674999713897705
7.799189571624549,-0.147376000881195,-0.8796199560165405,0.1995919942855835,-9.712499618530272,4.550000190734863,1.277500033378601
7.819290575675128,-0.226187989115715,-0.9023119807243348,0.2005679905414581,-16.239999771118164,11.270000457763672,2.0999999046325684
7.8393915797257065,-0.3013399839401245,-0.9340319633483888,0.2132560014724731,-16.520000457763672,13.19499969482422,1.8025000095367432
7.8594925837762855,-0.3023159801959991,-0.8825479745864868,0.2278959900140762,-12.460000038146973,10.727499961853027,-1.680000066757202
7.879593587826864,-0.3225679993629455,-0.8981639742851257,0.2432679980993271,-18.74250030517578,10.43000030517578,0.1574999988079071
7.899694591877443,-0.3254959881305694,-0.9071919918060304,0.2339959889650344,-18.84749984741211,9.677499771118164,1.3300000429153442
7.919795595928022,-0.3023159801959991,-0.9013359546661376,0.2088640034198761,-18.252500534057617,7.244999885559082,-0.699999988079071
7.939896599978601,-0.2503440082073211,-0.9635559916496276,0.2259439975023269,-13.09000015258789,11.427499771118164,-7.822500228881836
7.95999760402918,-0.2354599982500076,-0.9720959663391112,0.2398519963026046,-6.159999847412109,16.012500762939453,-9.55500030517578
7.980098608079759,-0.2249680012464523,-0.9450119733810424,0.2679120004177093,-0.4025000035762787,21.29750061035156,-9.55500030517578
8.000199612130338,-0.333547979593277,-0.933788001537323,0.2874319851398468,-0.5074999928474426,25.30500030517578,-8.680000305175781
8.020300616180917,-0.7354159951210022,-1.2390320301055908,-0.0151279997080564,-8.382499694824219,34.5625,-2.870000123977661
8.040401620231496,-0.3838119804859161,-1.5786799192428589,-0.5350919961929321,-24.53499984741211,87.37750244140625,11.130000114440918
8.060502624282075,-0.432123988866806,-1.8219479322433472,0.3342799842357635,-15.487500190734863,-14.822500228881836,1.2424999475479126
8.080603628332653,-0.5038599967956543,-1.1477760076522827,-0.5821840167045593,41.212501525878906,4.795000076293945,16.415000915527344
8.100704632383232,-0.3057319819927215,-1.0055240392684937,0.2493679970502853,32.8125,-44.79999923706055,5.425000190734863
8.120805636433811,-0.1854400038719177,-0.7893399596214294,0.0780799984931945,29.102500915527344,-20.649999618530277,-4.445000171661377
8.14090664048439,-0.0487999990582466,-0.7122359871864319,-0.0148839997127652,15.38249969482422,-10.640000343322754,-13.59749984741211
8.161007644534969,0.046604000031948,-0.6527000069618225,-0.0939399972558021,7.139999866485596,2.414999961853028,-23.78249931335449
8.181108648585548,0.0070759998634457,-0.5877959728240967,-0.0907679945230484,0.8224999904632568,18.96999931335449,-25.6200008392334
8.201209652636127,-0.1522559970617294,-0.8315519690513611,-0.1112639978528022,-16.327499389648438,29.802499771118164,-16.204999923706055
8.221310656686706,-0.1605519950389862,-1.0823839902877808,-0.0346480011940002,-10.412500381469728,26.70499992370605,-9.922499656677246
8.241411660737285,-0.0983319953083992,-1.1929160356521606,-0.0812520012259483,14.140000343322754,23.22249984741211,-9.887499809265137
8.261512664787864,-0.041967999190092,-1.1023919582366943,-0.1356640011072158,32.54999923706055,16.327499389648438,-21.857500076293945
8.281613668838443,-0.0168359987437725,-0.9025560021400452,-0.0824719965457916,27.912500381469727,12.774999618530272,-32.375
8.301714672889021,-0.0751519948244094,-0.937936007976532,-0.1851959973573684,-1.5049999952316284,15.34749984741211,-28.227500915527344
8.3218156769396,-0.1727519929409027,-1.028216004371643,-0.1295640021562576,-19.967500686645508,27.755001068115234,-22.872499465942383
8.34191668099018,-0.269131988286972,-1.0948280096054075,-0.0910120010375976,-26.82749938964844,33.127498626708984,-25.112499237060547
8.362017685040758,-0.3279359936714172,-1.0601799488067627,-0.0834480002522468,-19.4424991607666,31.51749992370605,-30.887500762939453
8.382118689091337,-0.317931979894638,-1.0167479515075684,-0.0261080004274845,-14.50749969482422,23.34499931335449,-33.162498474121094
8.402219693141916,-0.2298479974269867,-0.9271999597549438,-0.0253759995102882,-12.932499885559082,16.572500228881836,-32.654998779296875
8.422320697192495,-0.1424959897994995,-0.9398880004882812,-0.0178119987249374,-18.34000015258789,9.869999885559082,-29.540000915527344
8.442421701243074,-0.0788119956851005,-0.9418399930000304,-0.0253759995102882,-21.665000915527344,1.347499966621399,-25.51499938964844
8.462522705293653,-0.0229359995573759,-0.8688839673995972,-0.0405040010809898,-24.07999992370605,-6.912499904632568,-22.68000030517578
8.482623709344232,-0.0300120003521442,-0.8603439927101135,-0.0919879972934722,-33.21500015258789,-8.4350004196167,-18.165000915527344
8.50272471339481,-0.0783239975571632,-0.9018239974975586,-0.0697840005159378,-39.900001525878906,-6.929999828338623,-12.984999656677246
8.52282571744539,-0.1078479960560798,-0.9486719965934752,0.0060999998822808,-37.834999084472656,-7.139999866485596,-9.625
8.542926721495968,-0.065880000591278,-0.9730719923973083,-0.0051239999011158,-24.395000457763672,-14.630000114440918,-5.005000114440918
8.563027725546547,0.0219599995762109,-0.9250040054321288,0.0544119998812675,-14.105000495910645,-14.84000015258789,3.5174999237060547
8.583128729597126,0.071492001414299,-0.9179279804229736,0.0380639992654323,-12.407500267028809,-13.212499618530272,7.262499809265137
8.603229733647705,0.1454239934682846,-0.9081679582595824,-0.1066280007362365,-12.21500015258789,-7.227499961853027,12.074999809265137
8.623330737698284,0.0517279990017414,-0.9201239943504332,-0.119559995830059,-13.842499732971191,6.982500076293945,17.09749984741211
8.643431741748863,-0.0202520005404949,-0.9652639627456664,-0.0832040011882782,-15.102499961853027,10.53499984741211,19.0049991607666
8.663532745799442,0.0126879997551441,-0.9716079831123352,-0.1141919940710067,-11.427499771118164,12.355000495910645,20.002500534057617
8.68363374985002,-0.0912560001015663,-1.0487120151519775,0.0163480006158351,-13.912500381469728,14.50749969482422,17.27250099182129
8.7037347539006,-0.1698240041732788,-1.142408013343811,0.2479040026664734,-12.529999732971191,2.922499895095825,5.985000133514404
8.723835757951178,-0.2081319987773895,-1.1345999240875244,0.3137840032577514,-5.25,-14.350000381469728,-5.949999809265137
8.743936762001757,-0.216183990240097,-1.1436280012130735,0.2769399881362915,1.4700000286102295,-29.732500076293945,-14.332500457763672
8.764037766052336,-0.0275719985365867,-1.0535919666290283,0.1481079906225204,19.477500915527344,-44.90499877929688,-16.520000457763672
8.784138770102915,0.1581119894981384,-0.8500959873199463,0.0351359993219375,34.59749984741211,-43.41749954223633,-10.517499923706056
8.804239774153494,0.2752319872379303,-0.96697199344635,-0.1761679947376251,18.637500762939453,-32.04249954223633,-4.112500190734863
8.824340778204073,0.1063839942216873,-1.16949200630188,-0.4962959885597229,4.025000095367432,-5.932499885559082,-0.5074999928474426
8.844441782254652,0.1544519960880279,-1.46424400806427,-0.4038199782371521,0.612500011920929,33.58250045776367,-6.264999866485596
8.86454278630523,0.0941839963197708,-1.6260160207748413,-0.2679120004177093,-8.067500114440918,54.19750213623047,-30.415000915527344
8.88464379035581,0.2479040026664734,-1.5045039653778076,-0.2925559878349304,1.8899999856948853,56.31499862670898,-49.595001220703125
8.904744794406389,0.0578279979526996,-1.2341519594192505,-0.2596159875392914,19.38999938964844,47.21500015258789,-37.25749969482422
8.924845798456968,-0.1756799966096878,-0.868395984172821,-0.2239919900894165,36.557498931884766,42.94499969482422,-9.082500457763672
8.944946802507546,-0.3813720047473907,-0.6046319603919983,-0.2776719927787781,42.227500915527344,39.900001525878906,19.21500015258789
8.965047806558125,-0.248879998922348,-0.3306199908256531,-0.1800719946622848,43.872501373291016,32.217498779296875,31.727500915527344
8.985148810608704,-0.0463600009679794,-0.4267559945583343,-0.2425359934568405,8.977499961853027,46.900001525878906,37.817501068115234
9.005249814659283,0.0358680002391338,-0.8998720049858093,-0.2005679905414581,-31.02750015258789,58.712501525878906,28.700000762939453
9.025350818709862,0.0436760000884532,-1.1841319799423218,-0.1671399921178817,-21.45499992370605,71.59249877929688,9.730000495910645
9.045451822760441,-0.0253759995102882,-1.2917360067367554,-0.2220399975776672,1.9600000381469729,82.7925033569336,-3.849999904632568
9.06555282681102,-0.0692960023880004,-1.2217079401016235,-0.2083759903907776,31.5,90.37000274658205,-5.565000057220459
9.085653830861599,-0.1171199977397918,-1.1158119440078735,-0.1427399963140487,46.935001373291016,92.90750122070312,-1.7675000429153442
9.105754834912178,-0.2225279957056045,-1.073356032371521,-0.1800719946622848,41.282501220703125,89.49500274658203,9.239999771118164
9.125855838962757,-0.1995919942855835,-0.9164639711380004,-0.2317999899387359,32.27000045776367,80.04499816894531,31.88500022888184
9.145956843013336,-0.1790959984064102,-0.8535119891166687,-0.1637239903211593,29.96000099182129,84.26249694824219,36.6974983215332
9.166057847063914,-0.1227319985628128,-0.8630279898643494,-0.142984002828598,22.38249969482422,85.10250091552734,36.81999969482422
9.186158851114493,-0.0556319989264011,-0.90938800573349,-0.1112639978528022,16.729999542236328,87.08000183105469,32.619998931884766
9.206259855165072,-0.0480679981410503,-0.928663969039917,-0.0810080021619796,16.25749969482422,93.92250061035156,25.74250030517578
9.226360859215651,-0.1124840006232261,-0.9830759763717652,-0.075883999466896,17.2549991607666,97.2125015258789,18.602500915527344
9.24646186326623,-0.1781200021505355,-0.9767319560050964,-0.0153719997033476,26.145000457763672,95.49749755859376,12.984999656677246
9.266562867316809,-0.2681559920310974,-0.9550159573554992,0.0134199997410178,31.79750061035156,91.59500122070312,10.13249969482422
9.286663871367388,-0.3437959849834442,-0.975268006324768,-0.0156159996986389,32.44499969482422,85.08499908447266,10.3774995803833
9.306764875417967,-0.3564839959144592,-1.0047919750213623,-0.0400159992277622,32.497501373291016,77.15750122070312,11.8125
9.326865879468546,-0.2713280022144317,-0.9777079820632936,-0.0309880003333091,36.6974983215332,70.01750183105469,8.34749984741211
9.346966883519125,-0.2042279988527298,-0.9210999608039856,-0.0158599987626075,36.76750183105469,65.94000244140625,5.005000114440918
9.367067887569704,-0.1659199893474578,-0.8893799781799316,0.0195199996232986,31.045000076293945,62.15999984741211,4.514999866485596
9.387168891620282,-0.1261480003595352,-0.9032880067825316,0.0448959991335868,19.61750030517578,59.13249969482422,5.320000171661377
9.407269895670861,-0.1180959939956665,-0.8971880078315735,0.0412359982728958,11.234999656677246,56.73500061035156,5.565000057220459
9.42737089972144,-0.0756400004029274,-0.8764479756355286,0.0834480002522468,6.807499885559082,55.66749954223633,5.792500019073486
9.44747190377202,-0.0836919993162155,-0.8920639753341675,0.1278560012578964,1.924999952316284,58.20500183105469,6.597499847412109
9.467572907822598,-0.1237079948186874,-0.88401198387146,0.1254159957170486,1.2949999570846558,60.532501220703125,3.990000009536743
9.487673911873177,-0.0980879962444305,-0.901091992855072,0.1615279912948608,3.009999990463257,64.13749694824219,0.1050000041723251
9.507774915923756,-0.0773480013012886,-0.9433040022850036,0.1800719946622848,9.3100004196167,70.4375,-2.922499895095825
9.527875919974335,-0.0927200019359588,-0.93232399225235,0.1683599948883056,19.232500076293945,74.375,-6.894999980926514
9.547976924024914,-0.0366000011563301,-0.9103639721870422,0.1654319912195205,23.22249984741211,78.24250030517578,-9.449999809265137
9.568077928075493,-0.0368440002202987,-0.9132919907569884,0.1737279891967773,19.530000686645508,82.61750030517578,-11.672499656677246
9.588178932126072,-0.1129719987511634,-0.895967960357666,0.1615279912948608,18.84749984741211,79.7300033569336,-13.807499885559082
9.60827993617665,-0.1525000035762787,-0.8586359620094299,0.1449359953403473,19.862499237060547,78.57499694824219,-15.34749984741211
9.62838094022723,-0.3601439893245697,-0.8964560031890869,0.0495319999754428,16.8700008392334,78.01499938964844,-15.050000190734863
9.648481944277808,-0.3162239789962768,-1.1109319925308228,-0.4269999861717224,5.389999866485596,75.28500366210938,-5.302500247955322
9.668582948328387,-0.5267959833145142,-1.6284559965133667,-0.868395984172821,-24.2549991607666,99.50499725341795,11.6899995803833
9.688683952378966,-0.5665680170059204,-1.888559937477112,-0.1688479930162429,-12.792500495910645,38.0625,36.557498931884766
9.708784956429545,-0.4335879981517792,-1.3432199954986572,0.0588039979338645,27.614999771118164,1.5750000476837158,45.63999938964844
9.728885960480124,-0.1998360008001327,-0.6246399879455566,-0.1459119915962219,0.9800000190734864,10.9375,-6.982500076293945
9.748986964530703,-0.0929640009999275,-0.7646960020065308,-0.2718159854412079,-29.17250061035156,46.30500030517578,-17.02750015258789
9.769087968581282,0.0434319972991943,-0.9330559968948364,-0.3020719885826111,-30.1875,71.54000091552734,-19.302499771118164
9.78918897263186,-0.009515999816358,-0.8735199570655823,-0.2771840095520019,-13.59749984741211,74.98750305175781,-20.26499938964844
9.80928997668244,-0.065880000591278,-0.802515983581543,-0.1966639906167984,-12.092499732971191,59.90250015258789,-14.577500343322754
9.829390980733018,-0.1088239997625351,-0.7566440105438232,-0.1883679926395416,-14.612500190734863,50.470001220703125,-2.782500028610229
9.849491984783597,-0.1371279954910278,-0.8998720049858093,-0.2386319935321808,-26.46000099182129,49.36750030517578,12.232500076293944
9.869592988834176,-0.1390800029039383,-1.0311440229415894,-0.1981279999017715,-23.57250022888184,50.64500045776367,22.61000061035156
9.889693992884755,-0.13298000395298,-1.138260006904602,-0.1410319954156875,-16.15250015258789,52.56999969482422,21.717500686645508
9.909794996935334,-0.1644559949636459,-1.1231319904327393,-0.1115079969167709,-3.4825000762939453,54.372501373291016,12.792500495910645
9.929896000985913,-0.2186239957809448,-1.0640839338302612,-0.0239119995385408,2.4674999713897705,52.46500015258789,-0.4375
9.949997005036492,-0.2227720022201538,-1.0857999324798584,-0.0190319996327161,-3.954999923706055,46.7599983215332,-11.427499771118164
9.97009800908707,-0.230335995554924,-1.0782359838485718,-0.1105320006608963,-5.460000038146973,41.05500030517578,-14.0
9.99019901313765,-0.2278959900140762,-1.0518839359283447,-0.0753960013389587,-5.53000020980835,33.7400016784668,-12.635000228881836
10.010300017188229,-0.2095959931612014,-1.0187000036239624,-0.0085399998351931,-3.815000057220459,22.01499938964844,-12.355000495910645
10.030401021238808,-0.1278560012578964,-0.9635559916496276,-0.0175679996609687,-1.4524999856948853,8.977499961853027,-14.752500534057615
10.050502025289386,-0.0932080000638961,-0.8940159678459167,-0.0619760006666183,-4.269999980926514,-0.1749999970197677,-14.47249984741211
10.070603029339965,-0.1171199977397918,-0.8571720123291016,-0.1076039969921112,-10.202500343322754,-9.484999656677246,-11.095000267028809
10.090704033390544,-0.171775996685028,-0.8905999660491943,-0.1483519971370697,-12.18000030517578,-14.962499618530272,-9.274999618530272
10.110805037441123,-0.220331996679306,-0.8457039594650269,-0.1503039896488189,-0.8224999904632568,-19.98500061035156,-10.779999732971191
10.130906041491702,-0.2391199916601181,-0.7932440042495728,-0.0888160020112991,6.195000171661377,-23.625,-7.227499961853027
10.151007045542281,-0.2659600079059601,-0.8315519690513611,0.0219599995762109,4.269999980926514,-28.0,0.8400000333786011
10.17110804959286,-0.2115480005741119,-0.9330559968948364,-0.0041479999199509,4.269999980926514,-38.744998931884766,7.367499828338623
10.191209053643439,0.1417640000581741,-1.1270359754562378,-0.549731969833374,8.295000076293945,-42.875,11.130000114440918
10.211310057694018,-0.2503440082073211,-0.9777079820632936,-0.9450119733810424,10.359999656677246,14.06999969482422,8.557499885559082
10.231411061744597,0.1920280009508133,-1.1431399583816528,0.4101639986038208,8.819999694824219,-9.484999656677246,-4.199999809265137
10.251512065795175,-0.1295640021562576,-1.1406999826431274,-0.3457480072975158,-10.13249969482422,3.972500085830689,-4.287499904632568
10.271613069845754,-0.2391199916601181,-1.0326080322265625,-0.3769800066947937,-3.220000028610229,-18.34000015258789,-25.655000686645508
10.291714073896333,-0.3501400053501129,-0.9357399940490724,-0.2156959921121597,16.170000076293945,-21.4375,-32.462501525878906
10.311815077946912,-0.3001199960708618,-0.5921880006790161,-0.3628279864788055,31.184999465942383,-34.22999954223633,-12.512499809265137
10.331916081997491,-0.2942639887332916,-0.8647359609603882,-0.2791360020637512,-43.71500015258789,-25.479999542236328,-0.9800000190734864
10.35201708604807,-0.281819999217987,-0.9450119733810424,-0.0956479981541633,-27.42250061035156,-37.6775016784668,-14.40250015258789
10.372118090098649,-0.1981279999017715,-0.7056480050086975,-0.0749079957604408,-1.277500033378601,-39.7599983215332,-11.77750015258789
10.392219094149228,-0.1883679926395416,-0.640500009059906,-0.1029679998755455,-11.392499923706056,-35.4375,-4.777500152587891
10.412320098199807,-0.167383998632431,-0.6339119672775269,-0.1390800029039383,-24.0625,-27.5625,4.65500020980835
10.432421102250386,-0.1720200031995773,-0.7290719747543335,-0.1749479919672012,-41.54500198364258,-13.265000343322754,17.552499771118164
10.452522106300965,-0.1751919984817505,-0.7278519868850708,-0.187391996383667,-47.54750061035156,-7.262499809265137,23.04750061035156
10.472623110351543,-0.2066679894924163,-0.6834439635276794,-0.249123990535736,-54.14500045776367,-7.052500247955322,17.5
10.492724114402122,-0.3208599984645843,-0.7632319927215576,-0.3533119857311249,-64.81999969482422,-4.619999885559082,14.962499618530272
10.512825118452701,-0.3035359978675842,-0.7693319916725159,-0.6136599779129028,-62.334999084472656,-8.505000114440918,20.07250022888184
10.53292612250328,-0.1932480037212371,-0.8801079988479614,-0.1986159980297088,-76.77249908447266,-4.025000095367432,26.092500686645508
10.553027126553859,-0.2579079866409302,-0.8649799823760986,-0.2169159948825836,-68.94999694824219,-15.574999809265137,28.524999618530277
10.573128130604438,-0.1991039961576461,-0.9020679593086244,-0.310368001461029,-73.81500244140625,-25.357500076293945,37.345001220703125
10.593229134655017,-0.1061399951577186,-1.029191970825195,-0.2108159959316253,-74.7074966430664,-18.30500030517578,55.29999923706055
10.613330138705596,-0.0427000001072883,-0.8874279856681824,-0.2652280032634735,-53.83000183105469,-14.350000381469728,53.602500915527344
10.633431142756175,-0.0039039999246597,-0.8134959936141968,-0.3028039932250976,-59.37749862670898,-13.0024995803833,42.61249923706055
10.653532146806754,-0.1639679968357086,-0.891819953918457,-0.2662039995193481,-73.5875015258789,12.005000114440918,29.88999938964844
10.673633150857333,-0.1991039961576461,-0.913047969341278,-0.2510759830474853,-68.89749908447266,21.262500762939453,16.135000228881836
10.693734154907911,-0.1939799934625625,-0.9103639721870422,-0.236191987991333,-56.82250213623047,28.262500762939453,13.369999885559082
10.71383515895849,-0.2823079824447632,-0.9464759826660156,-0.2784039974212646,-46.21749877929688,37.747501373291016,18.32250022888184
10.73393616300907,-0.3518480062484741,-1.0611560344696045,-0.3193959891796112,-33.70500183105469,33.79249954223633,16.4325008392334
10.754037167059648,-0.3564839959144592,-1.0133320093154907,-0.3901560008525848,-26.4424991607666,22.207500457763672,-1.1024999618530271
10.774138171110227,-0.2945079803466797,-0.9667279720306396,-0.3047559857368469,-32.287498474121094,22.225000381469727,-23.467500686645508
10.794239175160806,-0.3081719875335693,-0.9176839590072632,-0.3786879777908325,-35.36750030517578,36.084999084472656,-35.89250183105469
10.814340179211385,-0.2113039940595626,-0.8232559561729431,-0.4348079860210418,-33.18000030517578,28.21000099182129,-43.557498931884766
10.834441183261964,-0.196175992488861,-0.9518439769744872,-0.4667719900608063,-33.31999969482422,5.179999828338623,-4.65500020980835
10.854542187312543,-0.3642919957637787,-0.9659959673881532,-0.4348079860210418,-11.322500228881836,-5.460000038146973,25.252500534057617
10.874643191363122,-0.3367199897766113,-0.8298439979553223,-0.4294399917125702,13.52750015258789,1.784999966621399,6.755000114440918
10.8947441954137,-0.2205759882926941,-0.7639639973640442,-0.3679519891738891,34.9474983215332,-5.96750020980835,-4.987500190734863
10.91484519946428,-0.3040239810943603,-0.7441999912261963,-0.3494080007076263,10.832500457763672,1.190000057220459,15.102499961853027
10.934946203514858,-0.3132959902286529,-0.8615639805793762,-0.4282200038433075,-38.04500198364258,-2.414999961853028,12.862500190734863
10.955047207565437,-0.2654719948768616,-0.9650200009346008,-0.509227991104126,-43.084999084472656,-6.667500019073486,4.829999923706055
10.975148211616016,-0.2176479995250702,-1.0072319507598877,-0.4797039926052093,-36.084999084472656,-12.65250015258789,3.1675000190734863
10.995249215666595,-0.196175992488861,-0.974291980266571,-0.4789719879627228,-26.19750022888184,-17.09749984741211,3.325000047683716
11.015350219717174,-0.2420479953289032,-0.903775990009308,-0.5204519629478455,-17.377500534057617,-21.315000534057617,3.815000057220459
11.035451223767753,-0.2735239863395691,-0.8942599892616272,-0.4958080053329468,-19.512500762939453,-24.44750022888184,-2.852499961853028
11.055552227818332,-0.2464399933815002,-0.8862079977989197,-0.4870239794254303,-27.28249931335449,-23.4325008392334,-16.520000457763672
11.07565323186891,-0.2393639981746673,-0.9398880004882812,-0.582427978515625,-36.33000183105469,-20.28249931335449,-24.850000381469727
11.09575423591949,-0.3540439903736114,-0.9657520055770874,-0.6107319593429565,-29.5575008392334,-14.315000534057615,-25.357500076293945
11.115855239970069,-0.4677479863166809,-1.0067440271377563,-0.642695963382721,-24.65749931335449,-11.864999771118164,-21.13999938964844
11.135956244020647,-0.4755559861660003,-0.9642879962921144,-0.6148799657821655,-20.96500015258789,-15.71500015258789,-17.53499984741211
11.156057248071226,-0.4123599827289581,-0.9640439748764038,-0.6095119714736938,-18.77750015258789,-24.622499465942383,-16.957500457763672
11.176158252121805,-0.3537999987602234,-0.8996279835700989,-0.5899919867515564,-19.512500762939453,-30.69499969482422,-15.767499923706056
11.196259256172384,-0.354775995016098,-0.8605879545211792,-0.607804000377655,-20.96500015258789,-31.674999237060547,-9.852499961853027
11.216360260222963,-0.3057319819927215,-0.9132919907569884,-0.6466000080108643,-17.850000381469727,-25.77750015258789,-3.587500095367432
11.236461264273542,-0.3025600016117096,-0.9818559885025024,-0.6524559855461121,-13.789999961853027,-16.625,1.7675000429153442
11.25656226832412,-0.3467240035533905,-1.0216280221939087,-0.6888119578361511,-7.822500228881836,-6.877500057220459,4.025000095367432
11.2766632723747,-0.3835679888725281,-1.0455399751663208,-0.695643961429596,3.640000104904175,3.867500066757202,-2.362499952316284
11.296764276425279,-0.3960119783878326,-1.0572519302368164,-0.6902759671211243,7.402500152587891,13.15999984741211,-8.819999694824219
11.316865280475858,-0.3982079923152923,-1.1162999868392944,-0.7332199811935425,7.157500267028809,19.4424991607666,-10.762499809265137
11.336966284526437,-0.3999159932136535,-1.1533880233764648,-0.7786039710044861,13.300000190734863,24.3075008392334,-10.53499984741211
11.357067288577015,-0.3813720047473907,-1.134112000465393,-0.8000760078430176,28.315000534057617,32.20000076293945,-10.989999771118164
11.377168292627594,-0.3557519912719726,-1.1214239597320557,-0.7861679792404175,42.29750061035156,36.92499923706055,-12.774999618530272
11.397269296678173,-0.3369639813899994,-1.1882799863815308,-0.7600600123405457,51.08250045776367,36.33000183105469,-16.327499389648438
11.417370300728752,-0.3315959870815277,-1.1746159791946411,-0.737123966217041,58.88750076293945,30.957500457763672,-17.0625
11.437471304779331,-0.326227992773056,-1.088727951049805,-0.6795399785041809,67.11250305175781,14.192500114440918,-17.885000228881836
11.45757230882991,-0.3642919957637787,-1.0509079694747925,-0.6095119714736938,66.22000122070312,-18.217500686645508,-14.734999656677246
11.477673312880489,-0.3652679920196533,-1.0335839986801147,-0.6065840125083923,59.1150016784668,-37.852500915527344,-11.6899995803833
11.497774316931068,-0.3076840043067932,-0.965507984161377,-0.5104479789733887,63.4900016784668,-42.4375,-12.442500114440918
11.517875320981647,-0.2110600024461746,-1.0104039907455444,-0.4101639986038208,54.775001525878906,-14.647500038146973,-15.592499732971191
11.537976325032226,-0.1127279996871948,-1.101904034614563,-0.2781600058078766,65.7125015258789,13.265000343322754,-24.7450008392334
11.558077329082804,-0.0402599982917308,-1.0369999408721924,-0.226187989115715,70.75250244140625,8.137499809265137,-28.90999984741211
11.578178333133383,-0.0880839973688125,-1.0333399772644043,-0.1776320040225982,68.82749938964844,31.27250099182129,-25.44499969482422
11.598279337183962,-0.0924759954214096,-0.8149600028991699,0.0119559997692704,54.25,32.07749938964844,-21.38500022888184
11.618380341234541,-0.0914999991655349,-0.9027999639511108,-0.2525399923324585,-15.119999885559082,30.957500457763672,-20.42250061035156
11.63848134528512,-0.0824719965457916,-0.9189040064811708,-0.3211039900779724,21.315000534057617,28.45499992370605,-24.13249969482422
11.658582349335699,-0.0670999959111213,-0.799344003200531,-0.1041879951953888,40.59999847412109,26.61750030517578,-23.677499771118164
11.678683353386278,-0.0002439999952912,-0.8169119954109192,-0.2610799968242645,40.845001220703125,12.057499885559082,-24.44750022888184
11.698784357436857,0.0226919986307621,-0.7229719758033752,-0.1610399931669235,47.442501068115234,18.00749969482422,-24.21999931335449
11.718885361487436,0.0509959980845451,-0.7773839831352234,-0.1549399942159652,33.880001068115234,24.79750061035156,-24.325000762939453
11.738986365538015,0.0710039958357811,-0.8859639763832092,-0.0863759964704513,26.40749931335449,29.837499618530277,-21.6299991607666
11.759087369588594,0.0741759985685348,-0.9293959736824036,-0.0700279995799064,32.8650016784668,40.58250045776367,-21.927499771118164
11.779188373639172,0.0793000012636184,-0.835211992263794,-0.0839359983801841,48.29999923706055,41.66749954223633,-28.087499618530277
11.799289377689751,0.1146799996495246,-0.6927160024642944,-0.0700279995799064,58.88750076293945,40.07500076293945,-28.06999969482422
11.81939038174033,0.0941839963197708,-0.8276479840278625,-0.1766559928655624,42.4900016784668,42.3849983215332,-24.86750030517578
11.83949138579091,0.1119959950447082,-0.7988559603691101,-0.1537199914455413,52.5525016784668,53.51499938964844,-25.375
11.859592389841488,0.0988200008869171,-0.7961719632148743,-0.1893439888954162,48.720001220703125,66.74500274658203,-22.96000099182129
11.879693393892067,0.085887998342514,-0.7998319864273071,-0.1371279954910278,51.01250076293945,70.5250015258789,-13.895000457763672
11.899794397942646,0.0139079997316002,-0.8461920022964478,-0.0805199965834617,49.33250045776367,85.2074966430664,-4.882500171661377
11.919895401993225,0.0175679996609687,-0.912559986114502,-0.052216000854969,51.17000198364258,84.57749938964844,11.357500076293944
11.939996406043804,0.0097599998116493,-0.9176839590072632,-0.1139479950070381,54.18000030517578,94.8324966430664,22.88999938964844
11.960097410094383,0.085887998342514,-0.9440360069274902,-0.0470919981598854,53.130001068115234,101.97250366210938,29.102500915527344
11.980198414144962,0.2476599961519241,-0.9472079873085022,0.0085399998351931,52.709999084472656,106.38249969482422,26.302499771118164
12.00029941819554,0.2925559878349304,-0.8884040117263794,-0.1090679988265037,59.16749954223633,150.77999877929688,-0.2975000143051147
12.02040042224612,0.1298079937696457,-0.6741719841957092,-0.1449359953403473,77.03500366210938,168.13999938964844,-32.39250183105469
12.040501426296698,0.0285479985177516,-0.7105280160903931,-0.2449759989976883,46.51499938964844,168.57749938964844,-52.150001525878906
12.060602430347277,-0.2022759914398193,-0.8842560052871704,-0.3528240025043487,23.100000381469727,181.8249969482422,-29.9950008392334
12.080703434397856,-0.3652679920196533,-1.2204879522323608,-0.6121959686279297,17.114999771118164,210.4550018310547,4.882500171661377
12.100804438448435,-0.1141919940710067,-1.267091989517212,-0.3516039848327636,23.677499771118164,140.27999877929688,22.24250030517578
12.120905442499014,-0.1478639990091323,-0.6053639650344849,0.0507519990205764,32.44499969482422,101.8324966430664,20.15999984741211
12.141006446549593,0.0390399992465972,-0.616100013256073,-0.0651479959487915,11.672499656677246,63.31499862670898,8.119999885559082
12.161107450600172,0.1849519908428192,-0.8864519596099854,-0.061243999749422,-11.725000381469728,70.45500183105469,1.5049999952316284
12.18120845465075,0.2393639981746673,-1.0445640087127686,0.009515999816358,-7.297500133514404,76.94750213623047,-5.320000171661377
12.20130945870133,0.2503440082073211,-0.9916160106658936,0.0222040005028247,4.252500057220459,77.64749908447266,-16.39750099182129
12.221410462751908,0.1988599896430969,-0.9933239817619324,-0.0317199975252151,8.032500267028809,84.66500091552734,-21.06999969482422
12.241511466802487,0.1788519918918609,-0.913047969341278,0.0285479985177516,12.529999732971191,85.06749725341797,-22.732500076293945
12.261612470853066,0.1790959984064102,-0.791047990322113,-0.0375759974122047,7.559999942779541,82.31999969482422,-22.0674991607666
12.281713474903645,0.1207799986004829,-0.7754319906234741,-0.0556319989264011,-3.640000104904175,91.0875015258789,-17.622499465942383
12.301814478954224,0.1061399951577186,-0.9201239943504332,-0.1378600001335144,-13.49250030517578,90.87750244140624,-10.657500267028809
12.321915483004803,0.0570959970355033,-0.9916160106658936,-0.0734440013766288,-15.190000534057615,93.0124969482422,-7.962500095367432
12.342016487055382,0.033671997487545,-1.0150399208068848,-0.0270840004086494,-19.46000099182129,87.25499725341797,-7.454999923706055
12.36211749110596,0.0307439994066953,-1.028216004371643,-0.0878399983048439,-25.165000915527344,79.30999755859375,-5.477499961853027
12.38221849515654,0.0139079997316002,-1.1038559675216677,-0.0980879962444305,-29.924999237060547,76.0199966430664,-1.8550000190734863
12.402319499207119,-0.0151279997080564,-1.1641240119934082,-0.0856439992785453,-30.22249984741211,71.2074966430664,0.1574999988079071
12.422420503257698,-0.0302559994161129,-1.1763240098953247,-0.0422119982540607,-27.71999931335449,66.22000122070312,-1.1024999618530271
12.442521507308276,0.0175679996609687,-1.1421639919281006,0.0139079997316002,-24.045000076293945,60.70750045776367,-5.074999809265137
12.462622511358855,0.0400159992277622,-1.0513960123062134,0.0563639998435974,-21.962499618530277,58.92250061035156,-11.34000015258789
12.482723515409434,0.0463600009679794,-0.9869799613952636,0.0644159987568855,-24.13249969482422,56.13999938964844,-17.02750015258789
12.502824519460013,0.0397720001637935,-0.924515962600708,0.0812520012259483,-25.07749938964844,54.16249847412109,-18.14750099182129
12.522925523510592,0.0661239996552467,-0.8759599924087524,0.0878399983048439,-27.28249931335449,50.13750076293945,-14.420000076293944
12.543026527561171,0.1146799996495246,-0.8361879587173462,0.0929640009999275,-29.71500015258789,47.810001373291016,-8.242500305175781
12.56312753161175,0.1642120033502578,-0.8098359704017639,0.0934519991278648,-33.61750030517578,48.650001525878906,-0.9449999928474426
12.583228535662329,0.1405439972877502,-0.8762039542198181,0.0868639945983886,-40.372501373291016,53.25249862670898,6.737500190734863
12.603329539712908,0.1127279996871948,-0.9342759847640992,0.0639280006289482,-40.057498931884766,53.27000045776367,12.967499732971191
12.623430543763487,0.0936959981918335,-0.9462319612503052,0.0819839984178543,-33.42499923706055,52.90250015258789,16.764999389648438
12.643531547814066,0.0546559989452362,-0.9603840112686156,0.0985759943723678,-26.63500022888184,49.50749969482422,17.2549991607666
12.663632551864644,0.0234239995479583,-0.9594079852104188,0.1156559959053993,-20.299999237060547,39.935001373291016,14.892499923706056
12.683733555915223,-0.041967999190092,-1.0055240392684937,0.1320039927959442,-21.857500076293945,31.3075008392334,16.852500915527344
12.703834559965802,-0.0836919993162155,-1.0550559759140017,0.2078879922628402,-18.637500762939453,24.02750015258789,19.337499618530277
12.723935564016381,0.0631959959864616,-1.0128439664840698,0.2047159969806671,-7.052500247955322,-14.647500038146973,12.932499885559082
12.74403656806696,0.2330199927091598,-1.0238239765167236,0.0263519994914531,-5.827499866485596,-29.26000022888184,11.707500457763672
12.764137572117539,0.27742800116539,-1.1702239513397217,-0.3308639824390411,-15.627500534057615,-34.93000030517578,11.84749984741211
12.784238576168118,0.3616079986095428,-1.37664794921875,-0.5902360081672668,-28.29750061035156,-22.802499771118164,-1.8899999856948853
12.804339580218697,0.4370039999485016,-1.4069039821624756,-0.1886119991540908,-29.732500076293945,15.487500190734863,-36.38249969482422
12.824440584269276,0.5563200116157532,-1.394703984260559,-0.1681160032749176,-29.3125,33.880001068115234,-53.602500915527344
12.844541588319855,0.3650240004062652,-1.4605839252471924,-0.2471719980239868,-11.987500190734863,46.095001220703125,-35.0525016784668
12.864642592370434,-0.0544119998812675,-1.1531440019607544,-0.1886119991540908,19.28499984741211,86.2925033569336,3.307500123977661
12.884743596421012,-0.1861719936132431,-0.904263973236084,-0.1634799987077713,28.665000915527344,64.73249816894531,38.1150016784668
12.904844600471591,-0.0548999980092048,-0.7415159940719604,-0.2113039940595626,27.755001068115234,38.9900016784668,55.02000045776367
12.92494560452217,-0.0192760005593299,-0.7966600060462952,-0.218868002295494,15.34749984741211,48.317501068115234,54.18000030517578
12.94504660857275,0.0631959959864616,-0.9247599840164183,-0.2044719904661178,14.210000038146973,53.54999923706055,42.03499984741211
12.965147612623328,0.0649039968848228,-1.0377320051193235,-0.1908079981803894,23.78249931335449,59.53499984741211,26.565000534057617
12.985248616673907,-0.0068319998681545,-1.038707971572876,-0.1927599906921386,38.84999847412109,64.19000244140625,15.032500267028809
13.005349620724486,-0.1371279954910278,-1.0228480100631714,-0.1722639948129654,48.05500030517578,66.46500396728516,16.012500762939453
13.025450624775065,-0.1998360008001327,-0.958187997341156,-0.158843994140625,51.64250183105469,61.810001373291016,20.877500534057617
13.045551628825644,-0.1678719967603683,-0.9464759826660156,-0.187391996383667,42.33250045776367,57.13750076293945,26.84499931335449
13.065652632876223,-0.0985759943723678,-1.0252879858016968,-0.1839759945869445,29.837499618530277,56.33250045776367,32.20000076293945
13.085753636926801,-0.0407480001449584,-0.9916160106658936,-0.1844639927148819,31.920000076293945,54.61750030517578,34.317501068115234
13.10585464097738,-0.0251320004463195,-0.8971880078315735,-0.1871479898691177,34.877498626708984,54.75749969482422,32.77750015258789
13.12595564502796,-0.0295239984989166,-0.8305760025978088,-0.1676279902458191,34.38750076293945,55.772499084472656,27.842500686645508
13.146056649078538,-0.1071159988641738,-0.8844999670982361,-0.1078479960560798,27.352500915527344,59.0625,24.46500015258789
13.166157653129117,-0.1683599948883056,-0.9633119702339172,-0.0392839983105659,22.049999237060547,55.755001068115234,23.239999771118164
13.186258657179696,-0.1803160011768341,-0.9528200030326844,0.0007319999858736,24.07999992370605,48.5625,23.32749938964844
13.206359661230275,-0.1805599927902221,-0.9079239964485168,-0.003171999938786,22.645000457763672,42.47249984741211,25.427499771118164
13.226460665280854,-0.1500599980354309,-0.8744959831237793,0.009515999816358,17.727500915527344,38.0625,28.06999969482422
13.246561669331433,-0.0936959981918335,-0.8676639795303345,0.0219599995762109,9.204999923706056,36.505001068115234,28.50749969482422
13.266662673382012,-0.0688079968094825,-0.9120720028877258,0.0153719997033476,-1.6974999904632568,38.09749984741211,24.552499771118164
13.28676367743259,-0.0773480013012886,-0.9162200093269348,0.0192760005593299,-3.884999990463257,39.88249969482422,19.4424991607666
13.30686468148317,-0.0888160020112991,-0.9030439853668212,0.0417240001261234,-4.21750020980835,39.095001220703125,15.697500228881836
13.326965685533748,-0.1271239966154098,-0.8903560042381287,0.0822279974818229,-7.577499866485596,31.56999969482422,8.697500228881836
13.347066689584327,-0.1334680020809173,-0.8264279961585999,0.1085800006985664,-6.422500133514404,25.917499542236328,4.21750020980835
13.367167693634906,-0.1061399951577186,-0.8115440011024475,0.1320039927959442,-9.922499656677246,20.09000015258789,-0.9975000023841858
13.387268697685485,-0.1334680020809173,-0.90475195646286,0.1261480003595352,-14.577500343322754,17.885000228881836,-6.264999866485596
13.407369701736064,-0.1456679999828338,-0.986735999584198,0.0973559990525245,-13.614999771118164,15.539999961853027,-7.052500247955322
13.427470705786643,-0.1710439920425415,-1.0860439538955688,0.1054079979658126,-9.397500038146973,21.332500457763672,-3.762500047683716
13.447571709837222,-0.1895879954099655,-1.0843359231948853,0.1093119978904724,5.547500133514404,17.395000457763672,-5.372499942779541
13.4676727138878,-0.1107759997248649,-1.1272799968719482,0.0509959980845451,12.512499809265137,8.837499618530273,-7.349999904632568
13.48777371793838,-0.0605119988322258,-1.157047986984253,0.0505079999566078,19.4950008392334,5.302500247955322,-9.135000228881836
13.507874721988959,-0.009515999816358,-1.0265079736709597,0.1512800008058548,28.89249992370605,8.977499961853027,-10.1850004196167
13.527975726039537,0.128831997513771,-0.9616039991378784,0.2410719990730285,22.155000686645508,17.622499465942383,-6.40500020980835
13.548076730090116,0.2217959910631179,-0.9550159573554992,0.2925559878349304,16.1875,36.45249938964844,-0.7699999809265137
13.568177734140695,0.1808039993047714,-0.9403759837150574,0.2630319893360138,15.27750015258789,56.54249954223633,2.887500047683716
13.588278738191274,0.0385520011186599,-0.9703879952430724,0.2156959921121597,16.309999465942383,71.69750213623047,1.5399999618530271
13.608379742241853,-0.1373720020055771,-1.0728679895401,0.0990639999508857,12.057499885559082,83.42250061035156,-0.4200000166893005
13.628480746292432,-0.0224479995667934,-1.4047080278396606,-0.1986159980297088,-7.927500247955322,76.05500030517578,-2.4674999713897705
13.648581750343011,-0.3889359831809997,-1.8248759508132932,-0.1629920005798339,-0.4025000035762787,106.34750366210938,3.7799999713897705
13.66868275439359,-0.6839320063591003,-1.8151159286499023,-0.3755159974098205,37.415000915527344,68.91500091552734,22.5049991607666
13.688783758444169,-0.8261839747428894,-1.193892002105713,-0.0683199986815452,75.93250274658203,42.61249923706055,63.82250213623047
13.708884762494748,-0.5885279774665833,-0.4472520053386688,-0.1390800029039383,82.82749938964844,5.985000133514404,69.0374984741211
13.728985766545327,-0.1820240020751953,-0.1481079906225204,-0.3147599995136261,48.334999084472656,-2.275000095367432,35.50749969482422
13.749086770595905,0.0190319996327161,-0.1378600001335144,-0.2730360031127929,2.887500047683716,6.545000076293945,14.017499923706056
13.769187774646484,-0.0495319999754428,-0.632203996181488,-0.4335879981517792,-56.34999847412109,17.832500457763672,-0.4724999964237213
13.789288778697063,-0.1578679978847503,-1.2761199474334717,-0.1703120023012161,-72.16999816894531,26.38999938964844,-15.942500114440918
13.809389782747642,-0.1742160022258758,-1.6021039485931396,-0.119559995830059,-41.38750076293945,24.36000061035156,-18.602500915527344
13.829490786798221,-0.1283439993858337,-1.5464719533920288,0.0039039999246597,12.022500038146973,14.9975004196167,-23.83500099182129
13.8495917908488,-0.13298000395298,-1.1438720226287842,-0.0590479969978332,55.352500915527344,3.920000076293945,-30.309999465942383
13.869692794899379,-0.0919879972934722,-0.8286240100860596,-0.0983319953083992,51.11750030517578,-6.877500057220459,-36.6974983215332
13.889793798949958,-0.1063839942216873,-0.7402960062026978,-0.104432001709938,17.727500915527344,-3.5350000858306885,-37.95750045776367
13.909894803000537,-0.2000799924135208,-0.8735199570655823,-0.0653920024633407,-13.96500015258789,2.2225000858306885,-35.087501525878906
13.929995807051116,-0.2766959965229034,-0.8986519575119019,-0.0029279999434947,-29.802499771118164,-8.557499885559082,-36.8025016784668
13.950096811101695,-0.27742800116539,-0.8742519617080688,0.0073199998587369,-30.537500381469727,-15.907500267028809,-34.49250030517578
13.970197815152273,-0.2164279967546463,-0.974291980266571,0.0163480006158351,-30.729999542236328,-27.51000022888184,-29.88999938964844
13.990298819202852,-0.1410319954156875,-0.9874680042266846,-0.0019519999623298,-18.6200008392334,-37.747501373291016,-29.76749992370605
14.010399823253431,-0.0880839973688125,-0.891819953918457,0.0492879971861839,-4.865000247955322,-44.345001220703125,-30.13500022888184
14.03050082730401,-0.0368440002202987,-0.7905600070953369,0.0924759954214096,-4.829999923706055,-47.337501525878906,-22.802499771118164
14.050601831354589,-0.0141519997268915,-0.7124800086021423,0.1061399951577186,-15.119999885559082,-47.67000198364258,-13.52750015258789
14.070702835405168,0.0143959997221827,-0.769819974899292,0.0880839973688125,-28.45499992370605,-47.56499862670898,-4.865000247955322
14.090803839455747,0.0307439994066953,-0.8737639784812927,0.0741759985685348,-34.02000045776367,-42.4900016784668,2.2925000190734863
14.110904843506326,0.0317199975252151,-0.9381799697875975,0.0732000023126602,-31.114999771118164,-35.3849983215332,6.352499961853027
14.131005847556905,0.0326960012316703,-0.9755119681358336,0.0592919997870922,-25.09499931335449,-30.082500457763672,8.557499885559082
14.151106851607484,0.0427000001072883,-0.9991799592971802,0.0265959985554218,-21.752500534057617,-27.229999542236328,8.154999732971191
14.171207855658063,-0.0080519998446106,-1.0606679916381836,0.0251320004463195,-24.07999992370605,-24.07999992370605,4.690000057220459
14.191308859708641,-0.0060999998822808,-1.1058080196380615,0.0524599999189376,-24.36000061035156,-25.32250022888184,-1.3825000524520874
14.21140986375922,-0.002195999957621,-1.107759952545166,0.0517279990017414,-21.03499984741211,-27.93000030517578,-6.440000057220459
14.2315108678098,-0.114436000585556,-1.13264799118042,0.0204959996044635,-17.7450008392334,-29.487499237060547,-10.640000343322754
14.251611871860378,-0.1881240010261535,-1.069208025932312,0.0678320005536079,-6.650000095367432,-34.58000183105469,-14.279999732971191
14.271712875910957,-0.2156959921121597,-1.0550559759140017,0.1578679978847503,-0.9449999928474426,-44.95750045776367,-19.127500534057617
14.291813879961536,-0.2154520004987716,-0.9703879952430724,0.2669360041618347,2.380000114440918,-64.50499725341797,-27.177499771118164
14.311914884012115,-0.2576639950275421,-0.9679479598999025,0.2752319872379303,1.8899999856948853,-88.18250274658203,-38.13249969482422
14.332015888062694,-0.249123990535736,-0.8298439979553223,0.2195999920368194,6.720000267028809,-113.26000213623048,-43.994998931884766
14.352116892113273,-0.1393239945173263,-0.8217920064926147,-0.0007319999858736,-6.212500095367432,-129.77999877929688,-40.98500061035156
14.372217896163852,0.2008119970560073,-1.0421240329742432,-0.1483519971370697,-24.395000457763672,-138.9324951171875,-26.600000381469727
14.39231890021443,0.3828359842300415,-1.3551759719848633,-0.4513999819755554,-30.20499992370605,-130.84750366210938,-15.71500015258789
14.41241990426501,0.4138239920139313,-1.6845759153366089,-0.4992239773273468,-25.58500099182129,-71.15499877929688,-20.212499618530277
14.432520908315588,0.6946679949760437,-1.911495923995972,-0.2888959944248199,-19.63500022888184,-56.73500061035156,-50.22499847412109
14.452621912366167,0.3901560008525848,-1.4003159999847412,-0.3215920031070709,24.184999465942383,-5.494999885559082,-77.3499984741211
14.472722916416746,-0.1200480014085769,-0.995519995689392,-0.2498559951782226,38.727500915527344,29.78499984741211,-44.432498931884766
14.492823920467325,-0.2503440082073211,-0.7829959988594055,-0.2476599961519241,28.489999771118164,-2.7300000190734863,-2.0824999809265137
14.512924924517904,-0.4328559935092926,-0.5299679636955261,-0.1505479961633682,28.262500762939453,1.225000023841858,30.274999618530277
14.533025928568483,-0.0531919971108436,-0.636352002620697,-0.128831997513771,9.362500190734863,-21.29750061035156,41.89500045776367
14.553126932619062,0.0239119995385408,-0.9950319528579712,-0.1083360016345977,-19.25,-16.83500099182129,35.682498931884766
14.57322793666964,-0.0326960012316703,-1.1826679706573486,-0.0727119967341423,-7.559999942779541,-9.397500038146973,24.552499771118164
14.59332894072022,0.0187879987061023,-1.0772600173950195,-0.0736880004405975,23.13500022888184,-22.575000762939453,11.427499771118164
14.613429944770798,-0.1647000014781952,-0.9860039949417114,-0.0846679955720901,32.182498931884766,-16.135000228881836,8.71500015258789
14.633530948821377,-0.2496119886636734,-0.9435479640960692,-0.1173639968037605,23.712499618530277,-19.040000915527344,13.824999809265137
14.653631952871956,-0.2337519973516464,-0.9823439717292786,-0.0890600010752677,10.079999923706056,-21.50749969482422,23.065000534057617
14.673732956922535,-0.1398119926452636,-0.9735599756240844,-0.0890600010752677,5.635000228881836,-26.63500022888184,29.26000022888184
14.693833960973114,-0.0585599988698959,-0.9176839590072632,-0.0954039990901947,5.40749979019165,-26.862499237060547,33.14500045776367
14.713934965023693,-0.0119559997692704,-0.909875988960266,-0.0807639956474304,1.4700000286102295,-21.73500061035156,34.98250198364258
14.734035969074272,-0.0180559996515512,-0.8966999650001526,-0.0756400004029274,-0.1225000023841857,-13.96500015258789,35.4375
14.75413697312485,-0.0712479948997497,-0.938423991203308,-0.038307998329401,-2.817500114440918,-7.367499828338623,35.209999084472656
14.77423797717543,-0.119559995830059,-0.9803919792175292,-0.0014639999717473,-1.837499976158142,-4.269999980926514,35.61249923706055
14.794338981226009,-0.152988001704216,-0.97843998670578,0.0107359997928142,3.692500114440918,-2.450000047683716,35.73500061035156
14.814439985276588,-0.1727519929409027,-0.90475195646286,0.0324519984424114,12.21500015258789,0.3675000071525574,32.619998931884766
14.834540989327166,-0.1586000025272369,-0.8432639837265015,0.0600240007042884,13.755000114440918,4.65500020980835,28.315000534057617
14.854641993377745,-0.118827998638153,-0.8332599997520447,0.0744199976325035,9.327500343322754,9.817500114440918,23.712499618530277
14.874742997428324,-0.0675880014896392,-0.8386279940605164,0.0914999991655349,2.922499895095825,14.927499771118164,18.059999465942383
14.894844001478903,-0.0314759984612464,-0.8432639837265015,0.1146799996495246,-3.4825000762939453,20.212499618530277,11.9350004196167
14.914945005529482,-0.0217159986495971,-0.8654679656028748,0.1254159957170486,-9.55500030517578,24.0625,6.755000114440918
14.935046009580061,-0.0380639992654323,-0.854487955570221,0.1341999918222427,-10.954999923706056,27.63249969482422,2.9574999809265137
14.95514701363064,-0.0500199981033802,-0.8112999796867371,0.1149239987134933,-10.56999969482422,28.559999465942383,-1.0149999856948853
14.975248017681219,-0.0629519969224929,-0.8208159804344177,0.0849120020866394,-12.442500114440918,28.192501068115234,-5.547500133514404
14.995349021731798,-0.1586000025272369,-0.929639995098114,0.0492879971861839,-18.1299991607666,32.147499084472656,-8.172499656677246
15.015450025782377,-0.3801519870758056,-1.050176024436951,-0.0605119988322258,-17.02750015258789,34.877498626708984,-5.197500228881836
15.035551029832956,-0.5682759881019592,-1.0743319988250732,-0.0002439999952912,0.262499988079071,33.14500045776367,-1.4700000286102295
15.055652033883534,-0.3555079996585846,-1.2334200143814087,0.2134999930858612,-3.202500104904175,14.157500267028809,8.925000190734863
15.075753037934113,-0.0805199965834617,-1.352247953414917,0.2754760086536407,1.4175000190734863,15.364999771118164,22.38249969482422
15.095854041984692,0.1180959939956665,-1.205847978591919,0.2681559920310974,25.30500030517578,20.3700008392334,25.96999931335449
15.115955046035271,0.1412760019302368,-1.0767719745635986,0.0961359962821006,34.790000915527344,37.09999847412109,24.13249969482422
15.13605605008585,-0.485071986913681,-1.3761600255966189,-0.366487979888916,7.664999961853027,82.98500061035156,21.21000099182129
15.156157054136429,-0.6153680086135864,-1.6765239238739014,-0.4040639996528625,10.727499961853027,71.69750213623047,22.88999938964844
15.176258058187008,-0.321835994720459,-1.4840079545974731,-0.1163880005478859,29.45249938964844,36.522499084472656,34.15999984741211
15.196359062237587,-0.1442039906978607,-1.145336031913757,-0.1566479951143264,41.5625,25.32250022888184,27.737499237060547
15.216460066288166,0.1193159967660904,-0.8591240048408508,-0.3193959891796112,31.65749931335449,30.4325008392334,12.057499885559082
15.236561070338745,0.216183990240097,-0.6165879964828491,-0.3472119867801666,17.114999771118164,62.03749847412109,-0.5950000286102295
15.256662074389324,0.1768999993801117,-0.6600199937820435,-0.3542879819869995,-6.824999809265137,89.98500061035156,-1.1024999618530271
15.276763078439902,-0.038307998329401,-0.8442400097846985,-0.3240320086479187,-21.787500381469727,98.01750183105467,-5.477499961853027
15.296864082490481,-0.2437559962272644,-0.958675980567932,-0.2313119918107986,-18.270000457763672,86.39749908447266,-12.6875
15.31696508654106,-0.3430639803409576,-0.9298839569091796,-0.1659199893474578,-10.605000495910645,71.81999969482422,-16.905000686645508
15.33706609059164,-0.2603479921817779,-0.8857199549674988,-0.1847079992294311,-14.262499809265137,60.8125,-15.487500190734863
15.357167094642218,-0.1525000035762787,-0.949891984462738,-0.1337119936943054,-19.18000030517578,58.92250061035156,-13.5625
15.377268098692797,-0.0761279985308647,-0.9069479703903198,-0.1029679998755455,-7.647500038146973,57.27750015258789,-15.994999885559082
15.397369102743376,-0.020983999595046,-0.8552199602127075,-0.187391996383667,-5.302500247955322,58.415000915527344,-16.502500534057617
15.417470106793955,-0.0441639982163906,-0.957211971282959,-0.2220399975776672,-11.2524995803833,66.22000122070312,-13.037500381469728
15.437571110844534,-0.0885719954967498,-0.9769759774208068,-0.2010560035705566,-5.704999923706055,69.10749816894531,-11.77750015258789
15.457672114895113,-0.115167997777462,-0.9511119723320008,-0.2042279988527298,-3.0975000858306885,66.48249816894531,-12.635000228881836
15.477773118945692,-0.1212679967284202,-0.933788001537323,-0.1249279975891113,-2.9574999809265137,63.595001220703125,-11.199999809265137
15.49787412299627,-0.1034559980034828,-0.9284200072288512,-0.0490439981222152,-2.6075000762939453,55.5625,-10.710000038146973
15.51797512704685,-0.0946719944477081,-0.9393999576568604,-0.0875959992408752,-1.1375000476837158,46.025001525878906,-12.390000343322754
15.538076131097428,-0.0722239986062049,-0.9210999608039856,-0.095160000026226,-0.3675000071525574,40.022499084472656,-13.107500076293944
15.558177135148007,-0.0563639998435974,-0.936959981918335,-0.0661239996552467,-3.0799999237060547,38.657501220703125,-10.710000038146973
15.578278139198586,-0.0331839993596077,-0.9247599840164183,-0.0636840015649795,-2.747499942779541,33.057498931884766,-8.260000228881836
15.598379143249165,-0.0451399981975555,-0.9311040043830872,-0.0341599993407726,-2.555000066757202,30.100000381469727,-5.215000152587891
15.618480147299744,-0.0424560010433197,-0.9171959757804872,0.047335997223854,1.6974999904632568,24.342500686645508,-2.0999999046325684
15.638581151350323,-0.0039039999246597,-0.9008479714393616,0.0783239975571632,7.577499866485596,18.549999237060547,2.1700000762939453
15.658682155400902,0.0746639966964721,-0.8476560115814209,0.0424560010433197,15.225000381469728,15.032500267028809,8.260000228881836
15.67878315945148,0.0363559983670711,-0.8303319811820984,-0.0075639998540282,17.552499771118164,18.690000534057617,14.315000534057615
15.69888416350206,-0.2156959921121597,-0.8532679677009583,-0.0380639992654323,19.512500762939453,25.602500915527344,16.887500762939453
15.718985167552638,-0.0163480006158351,-0.8500959873199463,-0.1405439972877502,23.274999618530277,21.73500061035156,15.75
15.739086171603217,0.1649439930915832,-1.1599760055541992,0.0817399993538856,-12.477499961853027,19.26749992370605,6.860000133514404
15.759187175653796,0.0170799996703863,-1.2319560050964355,0.0019519999623298,-14.489999771118164,18.34000015258789,-3.7100000381469727
15.779288179704375,-0.1137039959430694,-1.2204879522323608,-0.0385520011186599,-11.042500495910645,23.415000915527344,-8.3125
15.799389183754954,-0.0753960013389587,-1.3100359439849854,-0.0668559968471527,-11.0600004196167,21.315000534057617,-12.31999969482422
15.819490187805533,0.061243999749422,-1.2683119773864746,-0.3520919978618622,-10.850000381469728,16.239999771118164,-28.6825008392334
15.839591191856112,0.1034559980034828,-1.2775839567184448,-0.359167993068695,-16.83500099182129,33.040000915527344,-44.53749847412109
15.85969219590669,0.273279994726181,-1.231711983680725,-0.0829599946737289,-17.02750015258789,42.80500030517578,-51.95750045776367
15.87979319995727,0.4533520042896271,-1.2983239889144895,-0.158843994140625,-19.38999938964844,35.875,-43.88999938964844
15.899894204007849,0.2581520080566406,-1.2856359481811523,-0.3323279917240143,-9.765000343322754,55.40499877929688,-25.58500099182129
15.919995208058427,-0.0436760000884532,-1.0545679330825806,-0.3140279948711395,12.074999809265137,73.44750213623047,-3.325000047683716
15.940096212109006,-0.0932080000638961,-0.8359439969062805,-0.3235439956188202,26.18000030517578,73.29000091552734,15.050000190734863
15.960197216159585,-0.1442039906978607,-0.7598159909248352,-0.3057319819927215,26.337499618530277,73.01000213623047,22.225000381469727
15.980298220210164,-0.1976400017738342,-0.9020679593086244,-0.220331996679306,11.2524995803833,73.04499816894531,21.542499542236328
16.000399224260743,-0.1776320040225982,-0.9533079862594604,-0.2025199979543686,10.09749984741211,63.90999984741211,25.357500076293945
16.02050022831132,-0.1751919984817505,-0.8386279940605164,-0.3150039911270141,11.795000076293944,60.497501373291016,28.104999542236328
16.040601232361897,-0.2159399986267089,-0.8820599913597107,-0.3054879903793335,-10.552499771118164,57.872501373291016,27.8075008392334
16.060702236412475,-0.224480003118515,-0.9562360048294068,-0.3842999935150146,-19.862499237060547,51.59000015258789,28.612499237060547
16.08080324046305,-0.2383880019187927,-0.8935279846191406,-0.4345639944076538,-6.755000114440918,50.084999084472656,38.09749984741211
16.10090424451363,-0.1478639990091323,-0.7676239609718323,-0.4484719932079315,8.662500381469727,45.1150016784668,48.58000183105469
16.121005248564206,-0.0646599978208541,-0.6602640151977539,-0.3786879777908325,18.23500061035156,47.7400016784668,54.459999084472656
16.141106252614783,-0.1056519970297813,-0.4116279780864715,-0.314516007900238,28.612499237060547,63.06999969482422,55.10750198364258
16.16120725666536,-0.1544519960880279,-0.234727993607521,-0.1861719936132431,20.51000022888184,68.91500091552734,54.494998931884766
16.181308260715937,-0.3298879861831665,-0.1156559959053993,-0.0609999969601631,4.865000247955322,77.7699966430664,44.852500915527344
16.201409264766514,-0.2832840085029602,-0.2225279957056045,0.0646599978208541,-28.052499771118164,58.50249862670898,33.72249984741211
16.22151026881709,-0.1661639958620071,-0.6739279627799988,0.1651879996061325,-62.42250061035156,45.60499954223633,35.875
16.24161127286767,-0.0285479985177516,-0.8444839715957642,0.2391199916601181,-43.17250061035156,30.32749938964844,23.957500457763672
16.261712276918246,0.0124439997598528,-0.8774240016937256,-0.228872001171112,-28.89249992370605,18.44499969482422,4.357500076293945
16.281813280968823,-0.1229759976267814,-0.915731966495514,-0.6073160171508789,-14.454999923706056,51.29249954223633,-3.4649999141693115
16.3019142850194,-0.110287994146347,-1.0301679372787476,-0.2947520017623901,8.067500114440918,83.68499755859375,-11.515000343322754
16.322015289069977,-0.0805199965834617,-1.1499719619750977,-0.2269199937582016,38.08000183105469,60.095001220703125,-23.8174991607666
16.342116293120554,-0.0834480002522468,-1.199747920036316,-0.2571759819984436,49.61249923706055,53.27000045776367,-26.72249984741211
16.36221729717113,-0.2252119928598404,-1.4466760158538818,-0.0819839984178543,35.26250076293945,62.790000915527344,-5.757500171661377
16.38231830122171,-0.4431039988994598,-1.470587968826294,-0.4313919842243194,41.05500030517578,45.67499923706055,5.337500095367432
16.402419305272286,-0.472383975982666,-1.4752240180969238,-0.1332239955663681,56.630001068115234,17.167499542236328,-12.494999885559082
16.422520309322863,-0.7915359735488892,-1.9720079898834229,-0.3357439935207367,37.60750198364258,27.649999618530277,-9.922499656677246
16.44262131337344,-0.753715991973877,-2.365823984146118,-0.2066679894924163,47.6349983215332,-13.737500190734863,-28.052499771118164
16.462722317424017,-0.6695359945297241,-2.5754199028015137,-0.3132959902286529,37.852500915527344,-25.549999237060547,-35.4900016784668
16.482823321474594,-0.3667320013046264,-3.051219940185547,-0.3520919978618622,-24.377500534057617,-34.5099983215332,-25.270000457763672
16.50292432552517,-0.0036599999293684,-4.075531959533691,-0.1634799987077713,-107.67749786376952,-73.3949966430664,10.97249984741211
16.52302532957575,-0.1139479950070381,-3.758575916290283,-0.6385480165481567,-37.46749877929688,-48.96500015258789,23.59000015258789
16.543126333626326,-0.118827998638153,-2.67521595954895,-0.3799079954624176,36.15499877929688,-58.45000076293945,10.447500228881836
16.563227337676903,-0.1012599989771843,-2.084980010986328,-0.4150439798831939,9.537500381469728,-53.84749984741211,25.84749984741211
16.58332834172748,-0.0914999991655349,-1.4557039737701416,-0.5504639744758606,15.855000495910645,-52.255001068115234,37.22249984741211
16.603429345778057,-0.1254159957170486,-0.6444039940834045,0.1576239913702011,125.07250213623048,-41.790000915527344,18.6200008392334
16.623530349828634,-0.4770199954509735,0.3328160047531128,0.0502640008926391,156.9925079345703,-62.15999984741211,27.614999771118164
16.64363135387921,-0.367464005947113,1.2404959201812744,-0.7961719632148743,121.7125015258789,-83.00250244140625,-63.13999938964844
16.66373235792979,-0.1539639979600906,0.9928359985351562,-0.8059319853782654,20.982500076293945,-58.275001525878906,6.702499866485596
16.683833361980366,-0.1385920047760009,-0.3325719833374023,-1.140944004058838,-152.09249877929688,-81.65499877929688,62.6150016784668
16.703934366030943,0.1368840038776397,-0.4513999819755554,0.4060159921646118,-65.34500122070312,-123.21749877929688,26.4950008392334
16.72403537008152,-0.0207399986684322,-0.7807999849319458,-0.1420079916715622,13.982500076293944,-49.875,15.295000076293944
16.744136374132097,-0.0688079968094825,-0.1427399963140487,-0.2422920018434524,179.5675048828125,-74.41000366210938,-29.295000076293945
16.764237378182674,0.0346480011940002,0.713699996471405,0.1912959963083267,236.84500122070312,-73.29000091552734,-86.23999786376953
16.78433838223325,0.175924003124237,0.7129679918289185,0.2254559993743896,113.4175033569336,-65.30999755859375,-98.75250244140624
16.80443938628383,0.2210640013217926,-0.1505479961633682,0.0939399972558021,-31.86750030517578,-114.64250183105467,-16.100000381469727
16.824540390334406,0.1495719999074936,-0.2500999867916107,-0.1363959908485412,-22.5049991607666,-124.19750213623048,19.302499771118164
16.844641394384983,-0.0378200002014637,0.2186239957809448,-0.1729959994554519,-2.694999933242798,-16.11750030517578,18.655000686645508
16.86474239843556,-0.1485960036516189,0.2000799924135208,-0.0927200019359588,-33.75749969482422,11.602499961853027,25.23500061035156
16.884843402486137,-0.1642120033502578,0.0265959985554218,-0.0939399972558021,-50.942501068115234,-31.622499465942383,23.32749938964844
16.904944406536714,-0.0553879998624324,-0.140299990773201,-0.1137039959430694,-53.00749969482422,-103.18000030517578,14.210000038146973
16.92504541058729,0.052216000854969,-0.1315159946680069,-0.1534759998321533,-44.380001068115234,-131.2675018310547,2.1875
16.94514641463787,0.0732000023126602,-0.0727119967341423,-0.1290760040283203,-38.56999969482422,-90.4749984741211,-7.227499961853027
16.965247418688445,-0.0458719991147518,0.0290360003709793,-0.0524599999189376,-29.102500915527344,-27.15999984741211,-7.909999847412109
16.985348422739023,-0.0287919994443655,-0.0048799999058246,-0.0893040001392364,-22.34749984741211,-55.807498931884766,-15.68000030517578
17.0054494267896,-0.0195199996232986,-0.1027240008115768,-0.1844639927148819,-11.84749984741211,-55.05500030517578,-24.184999465942383
17.025550430840177,-0.0165919996798038,-0.0875959992408752,-0.2130119949579239,4.480000019073486,-42.57749938964844,-26.11000061035156
17.045651434890754,-0.0710039958357811,-0.0131759997457265,-0.1815359890460968,17.43000030517578,-33.70500183105469,-24.9375
17.06575243894133,-0.0556319989264011,-0.0326960012316703,-0.1324919909238815,29.61000061035156,-31.56999969482422,-26.0575008392334
17.08585344299191,0.0395279973745346,-0.1995919942855835,0.1180959939956665,14.542500495910645,-55.03749847412109,-27.96500015258789
17.105954447042485,0.0707599967718124,-0.7746999859809875,-0.3999159932136535,-39.567501068115234,-30.34499931335449,-8.977499961853027
17.126055451093062,0.6507480144500732,-2.656183958053589,0.0217159986495971,-203.99749755859372,23.59000015258789,27.545000076293945
17.14615645514364,0.1054079979658126,-5.3828840255737305,-0.9579439759254456,-255.0449981689453,172.84750366210938,22.540000915527344
17.166257459194217,-0.6248840093612671,-6.78685998916626,-0.8093479871749878,-343.5249938964844,121.76499938964844,176.78500366210938
17.186358463244794,-0.9454999566078186,-5.473407745361328,-1.2004799842834473,-30.48500061035156,7.735000133514404,51.869998931884766
17.20645946729537,-0.7585960030555725,-0.2720600068569183,0.2176479995250702,395.5874938964844,-117.31999969482422,-94.3949966430664
17.226560471345948,-0.8105679750442505,-1.1489959955215454,0.794219970703125,78.34750366210938,-67.2699966430664,-24.482500076293945
17.246661475396525,-0.4501799941062927,-0.5043479800224304,0.0261080004274845,47.59999847412109,-75.54750061035156,-41.282501220703125
17.266762479447102,-0.0949160009622573,-0.7517639994621277,-0.3057319819927215,-64.17250061035156,-62.07250213623047,0.1400000005960464
17.28686348349768,0.501908004283905,-1.6411439180374146,-0.0629519969224929,-101.5875015258789,-52.81499862670898,24.02750015258789
17.306964487548257,0.2901159822940826,-1.1353319883346558,-0.1612839996814727,-18.357500076293945,-13.912500381469728,-6.230000019073486
17.327065491598834,0.2654719948768616,-0.7881199717521667,-0.1395680010318756,-11.164999961853027,-23.520000457763672,-21.122499465942383
17.34716649564941,0.2171600013971328,-0.4889760017395019,-0.0780799984931945,-13.422499656677246,-13.457500457763672,-29.102500915527344
17.367267499699988,-0.0834480002522468,-0.0651479959487915,0.003171999938786,8.557499885559082,-6.912499904632568,-19.72249984741211
17.387368503750565,-0.142984002828598,0.2132560014724731,-0.0287919994443655,15.260000228881836,-10.552499771118164,-16.940000534057617
17.407469507801142,-0.1708000004291534,0.5790119767189026,-0.2435119897127151,10.640000343322754,12.967499732971191,-46.182498931884766
17.42757051185172,-0.2066679894924163,0.4626239836215973,-0.1310279965400695,-15.015000343322754,43.57500076293945,-42.595001220703125
17.447671515902297,-0.0936959981918335,-0.9086560010910034,-0.6285439729690552,-173.30250549316406,20.247499465942383,58.55500030517578
17.467772519952874,0.5289919972419739,-2.8172240257263184,-0.4182159900665283,-146.7899932861328,-29.942501068115234,103.93250274658205
17.48787352400345,0.6939359903335571,-2.244067907333374,-0.1293199956417083,35.314998626708984,143.2725067138672,49.36750030517578
17.507974528054028,0.8103240132331848,-1.854643940925598,-0.0470919981598854,97.94750213623048,140.10499572753906,2.747499942779541
17.528075532104605,0.5585159659385681,-0.7981239557266235,-0.0029279999434947,126.6125030517578,135.8175048828125,-41.45750045776367
17.548176536155182,0.0358680002391338,-0.6736840009689331,0.2540040016174316,55.96500015258789,175.07000732421875,-25.30500030517578
17.56827754020576,-0.4106519818305969,-0.8886479735374451,-0.0873520001769065,19.4424991607666,103.4250030517578,-9.1875
17.588378544256337,-0.5067880153656006,-0.614147961139679,-0.1983719915151596,22.399999618530277,99.0500030517578,-7.769999980926514
17.608479548306914,-0.3655119836330414,-0.8796199560165405,-0.1398119926452636,-9.082500457763672,72.60749816894531,-0.7875000238418579
17.62858055235749,-0.1647000014781952,-1.113371968269348,-0.2200879901647567,-11.40999984741211,54.38999938964844,6.650000095367432
17.648681556408068,-0.0153719997033476,-1.1609519720077517,-0.2771840095520019,11.4975004196167,52.255001068115234,10.779999732971191
17.668782560458645,0.1249279975891113,-1.0491999387741089,-0.2991439998149872,30.817501068115234,57.81999969482422,14.140000343322754
17.688883564509222,0.216183990240097,-1.0411479473114014,-0.2808440029621124,28.21000099182129,68.38999938964844,15.137499809265137
17.7089845685598,0.1317600011825561,-1.0252879858016968,-0.1647000014781952,21.90999984741211,97.52750396728516,10.02750015258789
17.729085572610376,0.0109799997881054,-1.001376032829285,-0.1137039959430694,15.609999656677246,106.15499877929688,3.289999961853028
17.749186576660954,-0.0739319995045661,-0.962336003780365,-0.1283439993858337,9.642499923706056,106.4000015258789,5.442500114440918
17.76928758071153,-0.1515239924192428,-1.0106480121612549,-0.1400559991598129,3.884999990463257,112.19249725341795,13.614999771118164
17.789388584762108,-0.1764120012521743,-1.0543240308761597,-0.1046760007739067,4.865000247955322,115.51750183105467,17.237499237060547
17.809489588812685,-0.2056919932365417,-1.0940959453582764,-0.0961359962821006,6.230000019073486,120.69750213623048,22.27750015258789
17.829590592863262,-0.2039839923381805,-1.0848239660263062,-0.1083360016345977,11.88249969482422,123.35749816894533,24.43000030517578
17.84969159691384,-0.1637239903211593,-1.0794559717178345,-0.128831997513771,19.98500061035156,122.86750030517578,22.732500076293945
17.869792600964416,-0.1654319912195205,-1.0025960206985474,-0.1163880005478859,34.877498626708984,125.77249908447266,18.795000076293945
17.889893605014993,-0.13468798995018,-0.8713240027427673,-0.0854000002145767,43.959999084472656,125.7375030517578,12.774999618530272
17.90999460906557,-0.1420079916715622,-0.791047990322113,-0.0468479990959167,37.69499969482422,126.47250366210938,10.149999618530272
17.930095613116148,-0.1888559907674789,-0.7725039720535278,-0.0158599987626075,23.030000686645508,124.40750122070312,12.074999809265137
17.950196617166725,-0.1890999972820282,-0.8071519732475281,0.0287919994443655,4.724999904632568,118.3000030517578,15.505000114440918
17.970297621217302,-0.1847079992294311,-0.8818159699440002,0.0439199991524219,-10.482500076293944,111.42250061035156,18.00749969482422
17.99039862526788,-0.2418039888143539,-0.936959981918335,0.0878399983048439,-17.377500534057617,105.82250213623048,18.34000015258789
18.010499629318456,-0.3228119909763336,-0.9994239807128906,0.0985759943723678,-20.63249969482422,95.6374969482422,14.822500228881836
18.030600633369033,-0.3028039932250976,-1.026263952255249,0.046604000031948,-16.274999618530273,79.32749938964844,8.050000190734863
18.05070163741961,-0.2220399975776672,-0.970143973827362,-0.0151279997080564,-7.332499980926514,68.7925033569336,2.2925000190734863
18.070802641470188,-0.1849519908428192,-0.9964959621429444,0.0102479998022317,-6.702499866485596,67.375,-0.8400000333786011
18.090903645520765,-0.1505479961633682,-1.0104039907455444,-0.0397720001637935,-2.047499895095825,62.07250213623047,-3.920000076293945
18.111004649571342,-0.1219999939203262,-1.071892023086548,-0.0819839984178543,-1.5924999713897705,56.962501525878906,-7.0
18.13110565362192,-0.1700679957866668,-1.1672959327697754,-0.0534359999001026,4.707499980926514,57.994998931884766,-8.680000305175781
18.151206657672496,-0.2405840009450912,-1.1355760097503662,-0.1483519971370697,19.11000061035156,53.060001373291016,-4.934999942779541
