Time (seconds),acc_x,acc_y,acc_z,gyro_x,gyro_y,gyro_z
0.020050968843892878,-0.0700279995799064,-1.168515920639038,-0.3213479816913605,35.209999084472656,9.99250030517578,5.985000133514404
0.040101937687785756,-0.2335079908370971,-0.9882000088691713,-0.2627879977226257,52.34249877929688,0.4200000166893005,16.502500534057617
0.06015290653167864,-0.2869440019130707,-0.8503400087356567,-0.2730360031127929,56.34999847412109,-13.49250030517578,22.137500762939453
0.08020387537557151,-0.2008119970560073,-0.6895439624786377,-0.2413159906864166,57.88999938964844,-21.665000915527344,22.45249938964844
0.10025484421946439,-0.1268799901008606,-0.5797439813613892,-0.1966639906167984,49.997501373291016,-18.39249992370605,17.920000076293945
0.12030581306335726,-0.0505079999566078,-0.7185800075531006,-0.1927599906921386,28.752500534057617,-3.587500095367432,14.980000495910645
0.14035678190725015,-0.0161039996892213,-0.935252010822296,-0.2881639897823334,4.987500190734863,9.607500076293944,20.42250061035156
0.16040775075114302,-0.003171999938786,-1.0914119482040403,-0.2581520080566406,-3.307500123977661,7.595000267028809,28.13999938964844
0.1804587195950359,-0.0527039989829063,-1.1589999198913574,-0.2252119928598404,14.192500114440918,6.982500076293945,32.67250061035156
0.20050968843892877,-0.1559159904718399,-1.0677440166473389,-0.2147199958562851,33.477500915527344,7.71750020980835,28.717500686645508
0.22056065728282165,-0.2371679991483688,-0.9106079936027528,-0.1803160011768341,43.522499084472656,8.487500190734863,20.96500015258789
0.24061162612671452,-0.2737680077552795,-0.8356999754905701,-0.109555996954441,40.11000061035156,6.142499923706055,15.399999618530272
0.2606625949706074,-0.2764520049095154,-0.8088600039482117,-0.0971119999885559,32.287498474121094,4.182499885559082,12.512499809265137
0.2807135638145003,-0.2383880019187927,-0.7810440063476562,-0.1061399951577186,30.887500762939453,2.870000123977661,13.614999771118164
0.3007645326583932,-0.2069119960069656,-0.7959280014038086,-0.0936959981918335,24.6924991607666,-1.225000023841858,19.0575008392334
0.3208155015022861,-0.177387997508049,-0.9020679593086244,-0.0578279979526996,16.39750099182129,-5.460000038146973,19.11000061035156
0.340866470346179,-0.1163880005478859,-0.924515962600708,-0.0243999995291233,14.84000015258789,-8.977499961853027,9.835000038146973
0.3609174391900719,-0.046604000031948,-0.8713240027427673,-0.0363559983670711,12.18000030517578,-9.782500267028809,1.1549999713897705
0.3809684080339648,-0.0112239997833967,-0.8247199654579163,-0.0534359999001026,6.125,-6.369999885559082,-3.762500047683716
0.4010193768778577,-0.0243999995291233,-0.8047119975090027,-0.0334279984235763,-0.1924999952316284,-0.5425000190734863,-7.017499923706055
0.4210703457217506,-0.0646599978208541,-0.843995988368988,-0.0380639992654323,-4.795000076293945,5.670000076293945,-12.512499809265137
0.4411213145656435,-0.0507519990205764,-0.9179279804229736,-0.0402599982917308,-4.619999885559082,8.78499984741211,-18.287500381469727
0.4611722834095364,-0.0121999997645616,-0.9386679530143738,-0.0405040010809898,-4.900000095367432,13.0024995803833,-21.45499992370605
0.4812232522534293,-0.0226919986307621,-1.0623760223388672,-0.1019919961690902,-4.340000152587891,10.3774995803833,-23.34499931335449
0.5012742210973222,0.0563639998435974,-1.129963994026184,0.0195199996232986,-0.4900000095367431,12.28499984741211,-23.239999771118164
0.5213251899412151,0.115167997777462,-1.2048720121383667,0.1381039917469024,2.6424999237060547,21.979999542236328,-18.287500381469727
0.541376158785108,0.1163880005478859,-1.2341519594192505,0.1190719977021217,9.467499732971191,34.42250061035156,-14.577500343322754
0.5614271276290009,-0.0100039998069405,-1.0033279657363892,0.0168359987437725,23.04750061035156,36.557498931884766,-16.712499618530273
0.5814780964728938,-0.1766559928655624,-0.8803519606590271,-0.0356239974498748,14.157500267028809,32.07749938964844,-7.490000247955322
0.6015290653167867,-0.3955239951610565,-1.2978359460830688,-0.2086199969053268,-21.542499542236328,40.86249923706055,25.88249969482422
0.6215800341606796,-0.6019479632377625,-1.752164006233215,-0.2213079929351806,-43.067501068115234,34.73749923706055,51.397499084472656
0.6416310030045725,-0.696619987487793,-1.7506999969482422,-0.1934919953346252,-18.217500686645508,5.302500247955322,45.185001373291016
0.6616819718484654,-0.4928799867630005,-1.342244029045105,-0.1683599948883056,19.11000061035156,-15.837499618530272,2.362499952316284
0.6817329406923583,-0.2437559962272644,-0.8503400087356567,-0.1442039906978607,35.209999084472656,-19.232500076293945,-25.357500076293945
0.7017839095362512,-0.042943999171257,-0.5519279837608337,-0.1781200021505355,24.412500381469727,-4.252500057220459,-30.852500915527344
0.7218348783801442,0.020983999595046,-0.4357839822769165,-0.2259439975023269,6.090000152587891,13.317500114440918,-32.91749954223633
0.741885847224037,0.0039039999246597,-0.4352959990501404,-0.3006079792976379,-11.4975004196167,18.76000022888184,-29.540000915527344
0.76193681606793,-0.0890600010752677,-0.6336680054664612,-0.317931979894638,-28.174999237060547,10.045000076293944,-9.3100004196167
0.7819877849118229,-0.1224879994988441,-1.0457839965820312,-0.3167119920253753,-39.30500030517578,-3.972500085830689,18.88249969482422
0.8020387537557158,-0.1320039927959442,-1.3244320154190063,-0.2903600037097931,-25.95249938964844,-12.774999618530272,26.46000099182129
0.8220897225996087,-0.1232199966907501,-1.250011920928955,-0.2342399954795837,-2.327500104904175,-16.782499313354492,4.409999847412109
0.8421406914435016,-0.1383479982614517,-1.0218719244003296,-0.1912959963083267,8.137499809265137,-17.325000762939453,-20.71999931335449
0.8621916602873945,-0.1332239955663681,-0.9230519533157348,-0.2278959900140762,6.019999980926514,-16.047500610351562,-30.11750030517578
0.8822426291312874,-0.1390800029039383,-0.9057279825210572,-0.2300919890403747,3.5,-16.415000915527344,-28.64750099182129
0.9022935979751803,-0.1363959908485412,-0.8864519596099854,-0.2591280043125152,1.3125,-20.614999771118164,-26.372499465942383
0.9223445668190732,-0.1024799942970275,-0.8374080061912537,-0.2596159875392914,-1.2599999904632568,-25.200000762939453,-21.94499969482422
0.9423955356629661,-0.0756400004029274,-0.8266719579696655,-0.2544919848442077,-7.542500019073486,-28.0,-15.855000495910645
0.962446504506859,-0.0790559947490692,-0.8115440011024475,-0.2383880019187927,-13.072500228881836,-29.1200008392334,-10.010000228881836
0.9824974733507519,-0.0527039989829063,-0.8293559551239014,-0.218868002295494,-19.670000076293945,-29.78499984741211,-4.199999809265137
1.0025484421946447,0.0058559998869895,-0.9215880036354064,-0.2086199969053268,-26.4950008392334,-30.607500076293945,-0.7524999976158142
1.0225994110385375,0.0256199985742568,-1.0235799551010132,-0.1893439888954162,-27.405000686645508,-30.905000686645508,-0.1749999970197677
1.0426503798824303,0.0273279994726181,-1.0657919645309448,-0.1827559918165207,-22.049999237060547,-29.592500686645508,-2.414999961853028
1.062701348726323,0.0570959970355033,-1.0777479410171509,-0.158843994140625,-14.980000495910645,-27.125,-6.335000038146973
1.0827523175702158,-0.0553879998624324,-0.9884439706802368,-0.1266359984874725,-5.617499828338623,-29.27750015258789,-7.139999866485596
1.1028032864141086,-0.105163998901844,-0.990884006023407,-0.1603080034255981,-7.840000152587891,-33.98500061035156,-1.8550000190734863
1.1228542552580014,-0.0914999991655349,-0.929639995098114,-0.1761679947376251,-7.175000190734863,-37.397499084472656,2.555000066757202
1.1429052241018942,-0.085887998342514,-0.8610759973526001,-0.1834879964590072,-8.767499923706055,-39.34000015258789,6.510000228881836
1.162956192945787,-0.0983319953083992,-0.8432639837265015,-0.2154520004987716,-8.855000495910645,-43.62749862670898,10.744999885559082
1.1830071617896798,-0.0963799953460693,-0.9481839537620544,-0.2186239957809448,-5.827499866485596,-46.77750015258789,16.887500762939453
1.2030581306335726,-0.0883279964327812,-0.998203992843628,-0.3725879788398742,2.2925000190734863,-48.5625,19.28499984741211
1.2231090994774654,-0.1593319922685623,-1.0460280179977417,-0.5036159753799438,1.3300000429153442,-48.22999954223633,18.51499938964844
1.2431600683213582,-0.23887600004673,-1.0882400274276731,-0.4291960000991821,-3.289999961853028,-45.727500915527344,10.587499618530272
1.263211037165251,-0.1876360028982162,-1.0077199935913086,-0.2759639918804168,-5.074999809265137,-41.685001373291016,0.7875000238418579
1.2832620060091438,-0.0646599978208541,-0.9757559895515442,-0.2469279915094375,-11.707500457763672,-29.942501068115234,-4.690000057220459
1.3033129748530365,0.0017079999670386,-0.9476959705352784,-0.2854799926280975,-17.71000099182129,-17.43000030517578,-4.077499866485596
1.3233639436969293,-0.0502640008926391,-0.9149999618530272,-0.2784039974212646,-19.739999771118164,-9.99250030517578,1.3825000524520874
1.3434149125408221,-0.1337119936943054,-0.9013359546661376,-0.2674239873886108,-15.71500015258789,-8.645000457763672,8.1899995803833
1.363465881384715,-0.1464000046253204,-0.8952359557151794,-0.1939799934625625,-8.8725004196167,-12.6875,12.074999809265137
1.3835168502286077,-0.1654319912195205,-0.9672159552574158,-0.1227319985628128,-4.619999885559082,-16.55500030517578,12.039999961853027
1.4035678190725005,-0.2086199969053268,-1.0099159479141235,-0.2159399986267089,2.1700000762939453,-18.602500915527344,12.162500381469728
1.4236187879163933,-0.1903200000524521,-1.0182119607925415,-0.3452599942684173,2.799999952316284,-15.452500343322754,11.480000495910645
1.443669756760286,-0.1163880005478859,-0.9969840049743652,-0.3686839938163757,-4.287499904632568,-7.210000038146973,6.159999847412109
1.4637207256041789,-0.1166319996118545,-0.9271999597549438,-0.3789319992065429,-12.635000228881836,-1.662500023841858,0.1050000041723251
1.4837716944480717,-0.1842200011014938,-0.9298839569091796,-0.3572160005569458,-18.96999931335449,0.6474999785423279,0.4900000095367431
1.5038226632919645,-0.2042279988527298,-0.9452559947967528,-0.2996319830417633,-18.024999618530277,-0.332500010728836,3.815000057220459
1.5238736321358572,-0.2200879901647567,-0.929152011871338,-0.2620559930801391,-10.97249984741211,-3.4124999046325684,6.195000171661377
1.54392460097975,-0.2357039898633957,-0.9013359546661376,-0.2845039963722229,-3.762500047683716,-6.195000171661377,7.472499847412109
1.5639755698236428,-0.2393639981746673,-0.9149999618530272,-0.2969479858875274,-0.7175000309944153,-5.25,7.769999980926514
1.5840265386675356,-0.2125239968299865,-0.929152011871338,-0.3020719885826111,-1.9424999952316284,-2.502500057220459,7.034999847412109
1.6040775075114284,-0.1756799966096878,-0.9201239943504332,-0.3098799884319305,-6.632500171661377,-0.7350000143051147,5.582499980926514
1.6241284763553212,-0.17323999106884,-0.895967960357666,-0.301827996969223,-10.1850004196167,-0.3149999976158142,5.179999828338623
1.644179445199214,-0.1851959973573684,-0.8991400003433228,-0.3006079792976379,-11.199999809265137,-1.7324999570846558,5.932499885559082
1.6642304140431068,-0.2130119949579239,-0.9196360111236572,-0.2979239821434021,-8.207500457763672,-3.237499952316284,6.107500076293945
1.6842813828869996,-0.2239919900894165,-0.9523319602012634,-0.3001199960708618,-1.5399999618530271,-2.065000057220459,2.940000057220459
1.7043323517308924,-0.1808039993047714,-0.96697199344635,-0.3001199960708618,-2.047499895095825,0.0700000002980232,1.4350000619888306
1.7243833205747852,-0.1610399931669235,-0.9677039980888368,-0.2945079803466797,-3.7100000381469727,1.0499999523162842,0.962499976158142
1.744434289418678,-0.1866599917411804,-0.9579439759254456,-0.2876760065555572,-4.199999809265137,-0.1924999952316284,1.9424999952316284
1.7644852582625707,-0.2015440016984939,-0.9472079873085022,-0.2742559909820556,-1.8550000190734863,-1.8200000524520876,2.5899999141693115
1.7845362271064635,-0.2037400007247924,-0.9313479661941528,-0.2705959975719452,1.5225000381469729,-2.362499952316284,2.9049999713897705
1.8045871959503563,-0.1893439888954162,-0.9232959747314452,-0.2683999836444855,3.569999933242798,-1.190000057220459,3.7799999713897705
1.8246381647942491,-0.1829999983310699,-0.9264679551124572,-0.2632759809494018,4.130000114440918,0.0525000020861625,4.269999980926514
1.844689133638142,-0.1866599917411804,-0.9462319612503052,-0.2325319945812225,1.715000033378601,-1.5924999713897705,4.567500114440918
1.8647401024820347,-0.1861719936132431,-0.938423991203308,-0.2461960017681121,1.5225000381469729,-3.132499933242798,4.042500019073486
1.8847910713259275,-0.2022759914398193,-0.932811975479126,-0.2725479900836944,0.5425000190734863,-2.817500114440918,3.255000114440918
1.9048420401698203,-0.1944679915904998,-0.9711199998855592,-0.2918239831924438,-2.2049999237060547,-0.1749999970197677,1.4175000190734863
1.924893009013713,-0.1710439920425415,-0.987223982810974,-0.2979239821434021,-3.2725000381469727,2.6600000858306885,-0.8400000333786011
1.9449439778576059,-0.1642120033502578,-0.9550159573554992,-0.289139986038208,-1.5750000476837158,3.447499990463257,-1.190000057220459
1.9649949467014987,-0.1825120002031326,-0.9496479630470276,-0.2652280032634735,0.6299999952316284,1.6100000143051147,0.875
1.9850459155453914,-0.2049599885940551,-0.9435479640960692,-0.2622999846935272,1.1024999618530271,1.8725000619888303,0.1400000005960464
2.0050968843892845,-0.2066679894924163,-0.9435479640960692,-0.2596159875392914,0.875,2.799999952316284,-0.6650000214576721
2.0251478532331775,-0.1890999972820282,-0.9579439759254456,-0.2559559941291809,0.6474999785423279,2.870000123977661,-0.8224999904632568
2.0451988220770705,-0.1856839954853058,-0.9479399919509888,-0.2681559920310974,1.4350000619888306,2.5199999809265137,-0.5950000286102295
2.0652497909209635,-0.1815359890460968,-0.9518439769744872,-0.2657159864902496,1.4524999856948853,2.765000104904175,0.5600000023841858
2.0853007597648565,-0.1749479919672012,-0.9459879994392396,-0.273279994726181,1.6449999809265137,2.5899999141693115,0.7175000309944153
2.1053517286087495,-0.1864160001277923,-0.9469639658927916,-0.2915799915790558,0.7175000309944153,2.9049999713897705,0.1749999970197677
2.1254026974526425,-0.2049599885940551,-0.958675980567932,-0.2901159822940826,-0.7699999809265137,3.745000123977661,-0.7350000143051147
2.1454536662965356,-0.2217959910631179,-0.9518439769744872,-0.2669360041618347,-0.8400000333786011,3.7100000381469727,-1.9774999618530276
2.1655046351404286,-0.2213079929351806,-0.9342759847640992,-0.2581520080566406,0.4900000095367431,2.450000047683716,-2.625
2.1855556039843216,-0.2069119960069656,-0.9128040075302124,-0.2705959975719452,1.627500057220459,1.5225000381469729,-2.712500095367432
2.2056065728282146,-0.1949559897184372,-0.92085599899292,-0.281819999217987,0.6299999952316284,1.8899999856948853,-3.447499990463257
2.2256575416721076,-0.1912959963083267,-0.924515962600708,-0.2852360010147095,-0.1400000005960464,3.0450000762939453,-6.019999980926514
2.2457085105160006,-0.2100839912891388,-0.9189040064811708,-0.3003639876842499,1.5924999713897705,6.177500247955322,-11.34000015258789
2.2657594793598936,-0.210327997803688,-0.9311040043830872,-0.2906039953231811,2.502500057220459,6.929999828338623,-11.392499923706056
2.2858104482037866,-0.2113039940595626,-0.944767951965332,-0.281576007604599,2.275000095367432,6.440000057220459,-10.8149995803833
2.3058614170476797,-0.2349720001220703,-0.9791719913482666,-0.2771840095520019,1.0149999856948853,4.8125,-10.447500228881836
2.3259123858915727,-0.2481479942798614,-0.9869799613952636,-0.2964600026607513,1.5049999952316284,3.640000104904175,-11.760000228881836
2.3459633547354657,-0.2371679991483688,-0.9713639616966248,-0.3242760002613067,3.569999933242798,4.865000247955322,-13.300000190734863
2.3660143235793587,-0.1983719915151596,-0.9657520055770874,-0.3191519975662231,5.53000020980835,7.105000019073486,-13.282500267028809
2.3860652924232517,-0.1798280030488968,-0.975268006324768,-0.2979239821434021,7.664999961853027,7.769999980926514,-12.267499923706056
2.4061162612671447,-0.1761679947376251,-0.9938119649887084,-0.2901159822940826,8.837499618530273,7.647500038146973,-11.462499618530272
2.4261672301110377,-0.1798280030488968,-0.9979599714279176,-0.2866999804973602,9.852499961853027,7.875,-12.267499923706056
2.4462181989549308,-0.1756799966096878,-0.9594079852104188,-0.2942639887332916,11.199999809265137,8.505000114440918,-14.315000534057615
2.4662691677988238,-0.1710439920425415,-0.913047969341278,-0.3052439987659454,11.462499618530272,10.02750015258789,-16.065000534057617
2.486320136642717,-0.1715319901704788,-0.8815720081329346,-0.3096359968185425,10.832500457763672,11.795000076293944,-16.677499771118164
2.50637110548661,-0.1771439909934997,-0.8920639753341675,-0.3125639855861664,8.75,14.175000190734863,-16.450000762939453
2.526422074330503,-0.1744599938392639,-0.9403759837150574,-0.3191519975662231,6.457499980926514,16.572500228881836,-15.78499984741211
2.546473043174396,-0.17323999106884,-0.9882000088691713,-0.3474559783935547,5.460000038146973,18.82999992370605,-15.645000457763672
2.566524012018289,-0.1615279912948608,-0.9703879952430724,-0.346235990524292,8.295000076293945,20.229999542236328,-17.762500762939453
2.586574980862182,-0.1478639990091323,-0.8984079957008362,-0.363315999507904,12.31999969482422,19.4950008392334,-19.63500022888184
2.606625949706075,-0.1444479972124099,-0.8137399554252625,-0.4223639965057373,15.732500076293944,17.727500915527344,-21.227500915527344
2.626676918549968,-0.1449359953403473,-0.791047990322113,-0.4301719963550567,13.335000038146973,16.362499237060547,-20.52750015258789
2.646727887393861,-0.1420079916715622,-0.8437519669532776,-0.3857640027999878,5.740000247955322,19.145000457763672,-16.799999237060547
2.666778856237754,-0.1132159978151321,-0.9201239943504332,-0.338916003704071,0.8924999833106995,19.915000915527344,-14.36750030517578
2.686829825081647,-0.065880000591278,-0.9589200019836426,-0.3501400053501129,1.7675000429153442,17.167499542236328,-13.15999984741211
2.70688079392554,-0.0424560010433197,-0.9184159636497498,-0.3720999956130981,5.949999809265137,16.99250030517578,-14.03499984741211
2.726931762769433,0.0012199999764561,-0.8879159688949585,-0.313539981842041,7.892499923706055,19.28499984741211,-12.61750030517578
2.746982731613326,0.0649039968848228,-0.9486719965934752,-0.2415599972009658,4.427500247955322,20.667499542236328,-5.565000057220459
2.767033700457219,0.1049199998378753,-1.0377320051193235,-0.1149239987134933,-0.4550000131130218,23.57250022888184,5.512499809265137
2.787084669301112,0.1027240008115768,-1.0784800052642822,-0.0202520005404949,-7.752500057220459,27.19499969482422,14.94499969482422
2.807135638145005,0.0907679945230484,-1.1050759553909302,-0.0802759975194931,-16.8174991607666,29.46999931335449,20.51000022888184
2.827186606988898,0.0793000012636184,-1.1555839776992798,-0.2069119960069656,-21.6825008392334,31.045000076293945,20.912500381469727
2.847237575832791,0.0844239965081214,-1.1048319339752195,-0.1932480037212371,-12.390000343322754,40.16249847412109,5.565000057220459
2.867288544676684,0.0573399998247623,-1.00381600856781,-0.08661999553442,-6.142499923706055,42.0,-2.887500047683716
2.887339513520577,0.0314759984612464,-0.9210999608039856,-0.0017079999670386,-4.427500247955322,40.040000915527344,-5.425000190734863
2.90739048236447,-0.020983999595046,-0.854487955570221,0.0265959985554218,-4.007500171661377,35.560001373291016,-2.1524999141693115
2.927441451208363,-0.0353799983859062,-0.835211992263794,0.0009759999811649,-4.042500019073486,29.81999969482422,4.235000133514404
2.947492420052256,-0.0048799999058246,-0.8637599945068359,-0.0785679966211319,-3.3949999809265137,24.325000762939453,10.9375
2.967543388896149,0.0463600009679794,-0.933788001537323,-0.1627479940652847,-3.184999942779541,19.38999938964844,16.625
2.987594357740042,0.0719799995422363,-1.016503930091858,-0.2278959900140762,-3.115000009536743,17.010000228881836,20.737499237060547
3.007645326583935,0.0739319995045661,-1.1158119440078735,-0.2483920007944107,-2.047499895095825,18.549999237060547,21.6299991607666
3.027696295427828,0.0580720007419586,-1.1480200290679932,-0.2679120004177093,5.09250020980835,20.405000686645508,17.727500915527344
3.047747264271721,0.038307998329401,-1.1011719703674316,-0.253271996974945,15.4350004196167,21.927499771118164,11.44499969482422
3.067798233115614,0.0314759984612464,-0.9877119660377502,-0.2793799936771393,22.854999542236328,23.537500381469727,4.025000095367432
3.087849201959507,0.0326960012316703,-0.8915759921073914,-0.2913359999656677,22.1200008392334,26.70499992370605,-0.1050000041723251
3.1079001708034,0.0312319993972778,-0.9054839611053468,-0.3096359968185425,15.627500534057615,30.537500381469727,2.747499942779541
3.127951139647293,0.0090279998257756,-0.8713240027427673,-0.3137840032577514,11.217499732971191,33.459999084472656,7.490000247955322
3.1480021084911862,-0.0261080004274845,-0.9006040096282959,-0.2903600037097931,4.987500190734863,34.38750076293945,12.845000267028809
3.1680530773350792,-0.0453839972615242,-0.9237839579582214,-0.2788919806480407,1.190000057220459,34.1775016784668,16.11750030517578
3.1881040461789723,-0.06734399497509,-0.9408639669418336,-0.3152479827404022,0.7699999809265137,33.022499084472656,17.377500534057617
3.2081550150228653,-0.0668559968471527,-0.9647759795188904,-0.3064639866352081,0.0525000020861625,31.86750030517578,14.454999923706056
3.2282059838667583,-0.0558759979903698,-0.990395963191986,-0.2869440019130707,0.8924999833106995,30.25749969482422,11.287500381469728
3.2482569527106513,-0.0922319963574409,-1.029191970825195,-0.3042680025100708,3.552500009536743,27.317501068115234,9.22249984741211
3.2683079215545443,-0.1376159936189651,-1.0196759700775146,-0.2984119951725006,7.945000171661377,24.20249938964844,7.682499885559082
3.2883588903984373,-0.1361519992351532,-0.96697199344635,-0.2854799926280975,11.602499961853027,21.21000099182129,6.335000038146973
3.3084098592423303,-0.1124840006232261,-0.9250040054321288,-0.2754760086536407,13.177499771118164,19.11000061035156,4.514999866485596
3.3284608280862233,-0.0975999981164932,-0.9376919865608216,-0.2598600089550018,10.552499771118164,17.149999618530273,3.0799999237060547
3.3485117969301164,-0.1036999970674514,-0.9454999566078186,-0.2342399954795837,7.892499923706055,15.24250030517578,2.887500047683716
3.3685627657740094,-0.1029679998755455,-0.9430599808692932,-0.2176479995250702,6.492499828338623,12.477499961853027,3.3424999713897705
3.3886137346179024,-0.0922319963574409,-0.9735599756240844,-0.1869039982557296,6.440000057220459,10.43000030517578,3.954999923706055
3.4086647034617954,-0.0683199986815452,-1.0016199350357056,-0.1864160001277923,8.295000076293945,9.5024995803833,3.884999990463257
3.4287156723056884,-0.0370879992842674,-0.990395963191986,-0.2178919911384582,12.72249984741211,10.587499618530272,2.694999933242798
3.4487666411495814,-0.0434319972991943,-0.9418399930000304,-0.2857239842414856,15.994999885559082,14.787500381469728,0.0175000000745058
3.4688176099934744,-0.0871080011129379,-0.9503799676895142,-0.2866999804973602,14.50749969482422,15.539999961853027,-0.4724999964237213
3.4888685788373675,-0.1193159967660904,-0.9698999524116516,-0.249123990535736,15.960000038146973,14.84000015258789,-1.2949999570846558
3.5089195476812605,-0.1307840049266815,-0.981611967086792,-0.2159399986267089,20.94750022888184,12.442500114440918,-1.347499966621399
3.5289705165251535,-0.1219999939203262,-0.965507984161377,-0.1803160011768341,26.600000381469727,8.732500076293945,-2.240000009536743
3.5490214853690465,-0.1227319985628128,-0.9518439769744872,-0.1800719946622848,27.877500534057617,4.585000038146973,-4.007500171661377
3.5690724542129395,-0.1332239955663681,-0.9147560000419616,-0.2166720032691955,28.38500022888184,0.6825000047683716,-6.684999942779541
3.5891234230568325,-0.1390800029039383,-0.8539999723434448,-0.2432679980993271,29.69750022888184,-2.8350000381469727,-8.015000343322754
3.6091743919007255,-0.0846679955720901,-0.8342359662055969,-0.2086199969053268,26.075000762939453,-1.9424999952316284,-2.327500104904175
3.6292253607446185,-0.1324919909238815,-0.9686799645423888,-0.2418039888143539,13.15999984741211,-2.345000028610229,6.737500190734863
3.6492763295885116,-0.1966639906167984,-1.13264799118042,-0.1766559928655624,10.09749984741211,-11.795000076293944,6.40500020980835
3.6693272984324046,-0.1788519918918609,-1.0491999387741089,-0.1910519897937774,20.299999237060547,-20.77250099182129,-6.037499904632568
3.6893782672762976,-0.1656759977340698,-0.915731966495514,-0.2552239894866943,24.377500534057617,-22.575000762939453,-17.202499389648438
3.7094292361201906,-0.1420079916715622,-0.867419958114624,-0.2115480005741119,20.63249969482422,-22.225000381469727,-21.700000762939453
3.7294802049640836,-0.1085800006985664,-0.9128040075302124,-0.0812520012259483,8.78499984741211,-25.497499465942383,-23.83500099182129
3.7495311738079766,-0.0824719965457916,-1.113371968269348,0.0348920002579689,-15.767499923706056,-33.494998931884766,-28.47249984741211
3.7695821426518696,-0.0663679987192154,-1.409343957901001,0.0605119988322258,-38.77999877929688,-39.35750198364258,-41.19499969482422
3.7896331114957627,0.0109799997881054,-1.492792010307312,-0.0129319997504353,-29.137500762939453,-34.73749923706055,-55.49250030517578
3.8096840803396557,0.1137039959430694,-1.266603946685791,-0.0053679998964071,9.65999984741211,-33.897499084472656,-48.29999923706055
3.8297350491835487,0.1427399963140487,-1.0728679895401,0.0729559957981109,35.01750183105469,-42.77000045776367,-17.815000534057617
3.8497860180274417,0.0934519991278648,-1.0950720310211182,0.0788119956851005,28.90999984741211,-49.8224983215332,10.832500457763672
3.8698369868713347,0.1019919961690902,-1.1577799320220947,0.042943999171257,20.212499618530277,-50.57500076293945,23.940000534057617
3.8898879557152277,0.128831997513771,-1.052616000175476,-0.0202520005404949,25.58500099182129,-43.6974983215332,26.792499542236328
3.9099389245591207,0.1217559948563575,-0.880840003490448,-0.0595359988510608,28.73500061035156,-37.25749969482422,27.51000022888184
3.9299898934030137,0.115167997777462,-0.8054440021514893,-0.013663999736309,18.32250022888184,-33.67000198364258,27.93000030517578
3.9500408622469068,0.1093119978904724,-0.7751879692077637,0.0241560004651546,8.645000457763672,-25.07749938964844,24.395000457763672
3.9700918310907998,0.0949160009622573,-0.8364319801330566,-0.0385520011186599,-1.277500033378601,-17.587499618530273,19.424999237060547
3.990142799934693,0.0895479992032051,-0.8810839653015137,-0.0361119993031024,-1.1725000143051147,-14.489999771118164,13.282500267028809
4.010193768778586,0.0339160002768039,-0.8752279877662659,-0.0370879992842674,1.8725000619888303,-10.86750030517578,7.28000020980835
4.030244737622478,-0.0375759974122047,-0.8803519606590271,-0.0261080004274845,2.5199999809265137,-8.137499809265137,4.112500190734863
4.050295706466371,-0.0207399986684322,-0.9874680042266846,0.0014639999717473,-5.53000020980835,-12.880000114440918,-1.627500057220459
4.0703466753102635,0.0146399997174739,-1.0313879251480105,-0.0356239974498748,-9.22249984741211,-14.06999969482422,-3.115000009536743
4.090397644154156,0.033671997487545,-1.0521279573440552,-0.0356239974498748,-9.0649995803833,-14.542500495910645,-2.2049999237060547
4.110448612998049,0.0248879995197057,-1.0396839380264282,-0.0192760005593299,-6.597499847412109,-15.960000038146973,-1.1375000476837158
4.130499581841941,0.0017079999670386,-1.013819932937622,-0.018300000578165,-5.827499866485596,-16.467500686645508,-0.3499999940395355
4.150550550685834,-0.0161039996892213,-1.012112021446228,-0.0414799973368644,-8.6274995803833,-15.015000343322754,1.225000023841858
4.170601519529726,-0.0219599995762109,-1.0069879293441772,-0.0675880014896392,-10.517499923706056,-12.914999961853027,1.680000066757202
4.190652488373619,-0.0165919996798038,-0.9640439748764038,-0.0963799953460693,-11.2524995803833,-10.989999771118164,0.5774999856948853
4.2107034572175115,-0.0405040010809898,-0.9264679551124572,-0.1080919951200485,-12.145000457763672,-9.082500457763672,-0.3499999940395355
4.230754426061404,-0.0795440003275871,-0.8859639763832092,-0.0946719944477081,-14.647500038146973,-8.085000038146973,-0.0525000020861625
4.250805394905297,-0.1071159988641738,-0.8871839642524719,-0.104432001709938,-21.542499542236328,-8.295000076293945,1.995000004768372
4.270856363749189,-0.1239520013332367,-0.9391559958457948,-0.1100439950823783,-28.104999542236328,-9.782500267028809,4.497499942779541
4.290907332593082,-0.1568920016288757,-0.9606279730796814,-0.1232199966907501,-29.78499984741211,-12.092499732971191,4.934999942779541
4.310958301436974,-0.1881240010261535,-0.9989359974861144,-0.1459119915962219,-30.274999618530277,-15.539999961853027,4.322500228881836
4.331009270280867,-0.2022759914398193,-1.0230920314788818,-0.1720200031995773,-29.34749984741211,-20.667499542236328,1.8899999856948853
4.3510602391247595,-0.1827559918165207,-1.042855978012085,-0.1869039982557296,-28.087499618530277,-26.18000030517578,0.1924999952316284
4.371111207968652,-0.1622599959373474,-1.0499320030212402,-0.2134999930858612,-23.83500099182129,-29.155000686645508,-0.962499976158142
4.391162176812545,-0.1307840049266815,-1.0274839401245115,-0.2354599982500076,-18.270000457763672,-30.625,-3.237499952316284
4.411213145656437,-0.1049199998378753,-0.9989359974861144,-0.2505879998207092,-12.774999618530272,-30.32749938964844,-6.107500076293945
4.43126411450033,-0.0822279974818229,-0.98990797996521,-0.2693759799003601,-8.942500114440918,-28.262500762939453,-9.029999732971191
4.451315083344222,-0.0570959970355033,-0.9738039970397948,-0.2620559930801391,-4.375,-23.34499931335449,-11.34000015258789
4.471366052188115,-0.0539239980280399,-0.9330559968948364,-0.2669360041618347,-0.9100000262260436,-17.2549991607666,-12.390000343322754
4.4914170210320075,-0.061243999749422,-0.8776679635047913,-0.2654719948768616,-1.3650000095367432,-11.6899995803833,-12.232500076293944
4.5114679898759,-0.0741759985685348,-0.8252080082893372,-0.2547360062599182,-4.059999942779541,-7.210000038146973,-12.25
4.531518958719793,-0.1071159988641738,-0.8042240142822266,-0.2561999857425689,-8.1899995803833,-4.462500095367432,-12.914999961853027
4.551569927563685,-0.1249279975891113,-0.8305760025978088,-0.268887996673584,-13.6850004196167,-3.009999990463257,-13.789999961853027
4.571620896407578,-0.100283995270729,-0.9154880046844482,-0.260591983795166,-16.59000015258789,-0.2800000011920929,-16.204999923706055
4.59167186525147,-0.0341599993407726,-1.0677440166473389,-0.2740119993686676,-15.172499656677246,7.472499847412109,-16.99250030517578
4.611722834095363,0.0007319999858736,-1.116055965423584,-0.3181760013103485,-2.9749999046325684,15.015000343322754,-16.065000534057617
4.6317738029392554,-0.0422119982540607,-0.9764879941940308,-0.2749879956245422,9.170000076293944,16.677499771118164,-15.487500190734863
4.651824771783148,0.0392839983105659,-1.0789679288864136,-0.1708000004291534,14.94499969482422,20.877500534057617,2.134999990463257
4.671875740627041,0.0527039989829063,-1.0445640087127686,-0.1786080002784729,20.09000015258789,20.825000762939453,5.442500114440918
4.691926709470933,0.0963799953460693,-1.038707971572876,-0.2037400007247924,17.90250015258789,20.49250030517578,6.300000190734863
4.711977678314826,0.1512800008058548,-1.0245559215545654,-0.1986159980297088,12.355000495910645,20.71999931335449,5.005000114440918
4.732028647158718,0.1366399973630905,-1.036512017250061,-0.1507920026779174,5.40749979019165,22.69750022888184,5.582499980926514
4.752079616002611,0.1454239934682846,-1.1765680313110352,-0.1063839942216873,-1.1024999618530271,25.287500381469727,12.5649995803833
4.772130584846503,0.1398119926452636,-1.2890520095825195,-0.0431879982352256,3.4649999141693115,23.99250030517578,20.649999618530277
4.792181553690396,0.0727119967341423,-1.2958840131759644,-0.0378200002014637,10.710000038146973,18.899999618530277,19.4424991607666
4.812232522534289,0.057583998888731,-1.130695939064026,-0.0378200002014637,14.577500343322754,15.907500267028809,3.255000114440918
4.832283491378181,0.0729559957981109,-0.962336003780365,-0.071492001414299,11.427499771118164,15.27750015258789,-13.05500030517578
4.852334460222074,0.0802759975194931,-0.9064599871635436,-0.1339560002088546,0.6299999952316284,15.470000267028809,-20.790000915527344
4.872385429065966,0.0873520001769065,-0.9186599850654602,-0.1383479982614517,-10.09749984741211,14.47249984741211,-20.59749984741211
4.892436397909859,0.0597799979150295,-0.9464759826660156,-0.0863759964704513,-13.824999809265137,11.077500343322754,-15.802499771118164
4.912487366753751,0.0500199981033802,-0.9250040054321288,-0.0392839983105659,-10.202500343322754,5.022500038146973,-12.704999923706056
4.932538335597644,0.0746639966964721,-0.8701039552688599,-0.0331839993596077,-3.849999904632568,-1.8025000095367432,-10.289999961853027
4.9525893044415366,0.1085800006985664,-0.87254399061203,-0.0602679997682571,-0.2450000047683715,-6.667500019073486,-5.372499942779541
4.972640273285429,0.1385920047760009,-0.8923079967498779,-0.0712479948997497,-0.1749999970197677,-7.577499866485596,-0.1749999970197677
4.992691242129322,0.1786080002784729,-0.9423279762268066,-0.0627079978585243,-1.8200000524520876,-5.284999847412109,4.742499828338623
5.012742210973214,0.2071560025215149,-0.9789279699325562,-0.0812520012259483,-3.1675000190734863,-1.0149999856948853,8.085000038146973
5.032793179817107,0.2198439985513687,-1.000643968582153,-0.1137039959430694,-3.692500114440918,6.667500019073486,9.607500076293944
5.052844148660999,0.210327997803688,-0.9945439696311952,-0.1546960026025772,-3.797500133514404,15.399999618530272,10.6225004196167
5.072895117504892,0.1617719978094101,-0.987223982810974,-0.1808039993047714,-4.777500152587891,23.8174991607666,11.287500381469728
5.0929460863487845,0.0802759975194931,-0.9935680031776428,-0.1988599896430969,-4.934999942779541,30.712499618530277,10.412500381469728
5.112997055192677,0.0170799996703863,-1.0033279657363892,-0.1810479909181594,-3.3949999809265137,34.720001220703125,9.274999618530272
5.13304802403657,0.002195999957621,-0.9950319528579712,-0.1459119915962219,-1.0325000286102295,35.42000198364258,9.414999961853027
5.153098992880462,0.0029279999434947,-0.9835639595985411,-0.1554279923439026,0.5249999761581421,33.932498931884766,11.077500343322754
5.173149961724355,-0.0051239999011158,-0.9647759795188904,-0.1783639937639236,1.4700000286102295,32.34000015258789,12.494999885559082
5.193200930568247,-0.0039039999246597,-0.9620919823646544,-0.206179991364479,1.190000057220459,31.395000457763672,13.49250030517578
5.21325189941214,-0.0261080004274845,-0.9708759784698486,-0.2205759882926941,1.8025000095367432,32.095001220703125,14.03499984741211
5.2333028682560325,-0.0258639995008707,-0.9781959652900696,-0.2366800010204315,3.4124999046325684,32.34000015258789,13.2475004196167
5.253353837099925,-0.0600240007042884,-0.9918599724769592,-0.2256999909877777,0.4900000095367431,29.399999618530277,11.619999885559082
5.273404805943818,-0.0732000023126602,-0.9796599745750428,-0.2042279988527298,-0.5950000286102295,27.59749984741211,11.8125
5.29345577478771,-0.047580000013113,-0.961359977722168,-0.2191119939088821,-0.332500010728836,25.112499237060547,13.230000495910645
5.313506743631603,-0.0280600003898143,-0.9474520087242126,-0.2359479963779449,-0.1749999970197677,23.887500762939453,14.90999984741211
5.333557712475495,-0.0246439985930919,-0.948915958404541,-0.2418039888143539,-1.715000033378601,23.39750099182129,15.24250030517578
5.353608681319388,-0.0366000011563301,-0.9745360016822816,-0.2464399933815002,-4.585000038146973,23.39750099182129,15.050000190734863
5.3736596501632805,-0.0541680008172988,-0.982587993144989,-0.2310680001974105,-6.019999980926514,23.25749969482422,14.332500457763672
5.393710619007173,-0.052947998046875,-0.977463960647583,-0.2012999951839447,-6.510000228881836,22.540000915527344,14.385000228881836
5.413761587851066,-0.0500199981033802,-0.985759973526001,-0.1890999972820282,-5.862500190734863,21.174999237060547,15.627500534057615
5.433812556694958,-0.0385520011186599,-1.0043039321899414,-0.2115480005741119,-3.4649999141693115,19.565000534057617,15.119999885559082
5.453863525538851,-0.0300120003521442,-1.0216280221939087,-0.2422920018434524,-0.9100000262260436,18.462499618530277,11.952500343322754
5.473914494382743,-0.0317199975252151,-1.0177240371704102,-0.253028005361557,2.5899999141693115,18.042499542236328,9.274999618530272
5.493965463226636,-0.0427000001072883,-1.002351999282837,-0.2381439954042434,6.457499980926514,18.39249992370605,7.735000133514404
5.5140164320705285,-0.056607998907566,-1.0084519386291504,-0.2030079960823059,8.767499923706055,18.497499465942383,7.927500247955322
5.534067400914421,-0.0541680008172988,-1.011379957199097,-0.177387997508049,11.619999885559082,17.09749984741211,8.032500267028809
5.554118369758314,-0.0563639998435974,-0.972827970981598,-0.1644559949636459,14.9975004196167,14.157500267028809,6.230000019073486
5.574169338602206,-0.0614879988133907,-0.958187997341156,-0.1568920016288757,15.907500267028809,11.550000190734863,5.477499961853027
5.594220307446099,-0.0644159987568855,-0.9350079894065856,-0.1564040035009384,16.59000015258789,9.22249984741211,6.090000152587891
5.614271276289991,-0.0441639982163906,-0.9464759826660156,-0.1607960015535354,15.172499656677246,7.647500038146973,8.225000381469727
5.634322245133884,-0.0490439981222152,-0.9943000078201294,-0.1600639969110489,11.042500495910645,8.71500015258789,11.4975004196167
5.6543732139777765,-0.0514839999377727,-0.9935680031776428,-0.1581119894981384,11.095000267028809,7.945000171661377,11.987500190734863
5.674424182821669,-0.0436760000884532,-0.9786840081214904,-0.1966639906167984,12.72249984741211,6.422500133514404,9.170000076293944
5.694475151665562,-0.062219999730587,-0.9703879952430724,-0.1993480026721954,13.020000457763672,7.0,6.579999923706055
5.714526120509454,-0.100283995270729,-0.9767319560050964,-0.1708000004291534,11.550000190734863,6.632500171661377,3.640000104904175
5.734577089353347,-0.1176079958677291,-0.9628239870071412,-0.1376159936189651,10.13249969482422,4.760000228881836,-0.2800000011920929
5.754628058197239,-0.1464000046253204,-0.9454999566078186,-0.1373720020055771,8.960000038146973,2.677500009536743,-1.7675000429153442
5.774679027041132,-0.1405439972877502,-0.93232399225235,-0.1612839996814727,8.137499809265137,-0.5249999761581421,-0.7175000309944153
5.7947299958850245,-0.1202920004725456,-0.9523319602012634,-0.1693359911441803,5.057499885559082,-2.362499952316284,0.9275000095367432
5.814780964728917,-0.1415199935436248,-0.9906399846076964,-0.1559159904718399,2.309999942779541,-2.275000095367432,-0.0700000002980232
5.83483193357281,-0.1737279891967773,-0.990395963191986,-0.1510359942913055,1.6449999809265137,-2.134999990463257,-4.182499885559082
5.854882902416702,-0.1341999918222427,-0.9630680084228516,-0.1063839942216873,-0.5074999928474426,-7.682499885559082,-9.765000343322754
5.874933871260595,-0.1239520013332367,-0.9567239880561828,-0.1007720008492469,-1.5750000476837158,-10.86750030517578,-10.342499732971191
5.894984840104487,-0.1295640021562576,-0.9403759837150574,-0.1271239966154098,-2.694999933242798,-14.36750030517578,-8.539999961853027
5.91503580894838,-0.1146799996495246,-0.9520879983901978,-0.1417640000581741,-5.635000228881836,-15.977499961853027,-5.84499979019165
5.9350867777922724,-0.1112639978528022,-1.006011962890625,-0.1571359932422638,-12.162500381469728,-16.485000610351562,-4.550000190734863
5.955137746636165,-0.1090679988265037,-1.0592039823532104,-0.1305399984121322,-16.537500381469727,-17.237499237060547,-6.720000267028809
5.975188715480058,-0.1505479961633682,-1.1114200353622437,-0.142984002828598,-15.75,-17.5,-11.987500190734863
5.99523968432395,-0.191783994436264,-1.0814080238342283,-0.1620160043239593,-7.752500057220459,-18.44499969482422,-19.092500686645508
6.015290653167843,-0.1368840038776397,-1.030411958694458,-0.1061399951577186,-2.0999999046325684,-17.395000457763672,-21.21000099182129
6.035341622011735,-0.0644159987568855,-1.0082080364227295,-0.0192760005593299,-1.1024999618530271,-15.627500534057615,-15.802499771118164
6.055392590855628,-0.0253759995102882,-1.0050359964370728,-0.0434319972991943,-2.345000028610229,-19.31999969482422,-3.902499914169312
6.07544355969952,0.0119559997692704,-1.0660359859466553,-0.0409919992089271,-5.757500171661377,-25.200000762939453,10.9375
6.095494528543413,-0.0251320004463195,-1.145336031913757,0.0060999998822808,-6.300000190734863,-29.837499618530277,22.5575008392334
6.115545497387306,-0.1124840006232261,-1.1741279363632202,-0.0173240005970001,-5.757500171661377,-34.14250183105469,24.88500022888184
6.135596466231198,-0.1129719987511634,-1.1402119398117063,-0.0146399997174739,-3.0450000762939453,-35.0,18.987499237060547
6.155647435075091,-0.0170799996703863,-1.0523719787597656,-0.0397720001637935,2.047499895095825,-29.837499618530277,14.699999809265137
6.175698403918983,0.046604000031948,-0.9206119775772096,-0.0883279964327812,7.840000152587891,-21.927499771118164,18.82999992370605
6.195749372762876,0.0973559990525245,-0.8247199654579163,-0.1022359952330589,8.207500457763672,-14.279999732971191,25.67250061035156
6.215800341606768,0.1202920004725456,-0.8254519701004028,-0.08661999553442,0.3849999904632568,-7.577499866485596,30.852500915527344
6.235851310450661,0.0678320005536079,-0.9354959726333618,-0.0617319978773593,-9.677499771118164,-3.569999933242798,29.977500915527344
6.255902279294554,-0.0124439997598528,-0.9799039959907532,-0.0268399994820356,-11.182499885559082,-2.2049999237060547,23.78249931335449
6.275953248138446,-0.0941839963197708,-0.9882000088691713,0.0058559998869895,-8.452500343322754,-1.5750000476837158,18.00749969482422
6.296004216982339,-0.1254159957170486,-1.02211594581604,0.0180559996515512,-7.752500057220459,-1.5399999618530271,14.524999618530272
6.316055185826231,-0.1337119936943054,-1.0343159437179563,-0.006343999877572,-5.897500038146973,-2.1875,11.585000038146973
6.336106154670124,-0.142984002828598,-1.0499320030212402,-0.0229359995573759,-2.5899999141693115,-4.042500019073486,6.860000133514404
6.356157123514016,-0.1290760040283203,-1.0338280200958252,-0.0502640008926391,1.190000057220459,-6.002500057220459,-0.5074999928474426
6.376208092357909,-0.1132159978151321,-0.97843998670578,-0.1100439950823783,4.795000076293945,-5.897500038146973,-5.232500076293945
6.3962590612018015,-0.1129719987511634,-0.9601399898529052,-0.130295991897583,4.585000038146973,-4.724999904632568,-3.4649999141693115
6.416310030045694,-0.1158999949693679,-0.9777079820632936,-0.1239520013332367,1.5750000476837158,-3.622499942779541,0.8224999904632568
6.436360998889587,-0.114436000585556,-0.9842959642410278,-0.1246839985251426,-0.4550000131130218,-2.9574999809265137,2.747499942779541
6.456411967733479,-0.1854400038719177,-0.929152011871338,-0.1127279996871948,-5.494999885559082,-4.585000038146973,1.9600000381469729
6.476462936577372,-0.1951999962329864,-0.9428159594535828,-0.109555996954441,-7.4375,-5.84499979019165,3.3424999713897705
6.496513905421264,-0.1810479909181594,-0.9950319528579712,-0.1339560002088546,-8.539999961853027,-5.722499847412109,4.567500114440918
6.516564874265157,-0.1544519960880279,-1.0330959558486938,-0.1525000035762787,-5.494999885559082,-3.569999933242798,4.480000019073486
6.5366158431090495,-0.1251720041036605,-1.0172359943389893,-0.1644559949636459,-0.6474999785423279,-1.1549999713897705,2.2225000858306885
6.556666811952942,-0.1234639957547187,-0.9679479598999025,-0.1722639948129654,1.6449999809265137,-0.1050000041723251,0.5425000190734863
6.576717780796835,-0.1180959939956665,-0.9611159563064576,-0.1554279923439026,1.6100000143051147,-0.8575000166893005,1.5575000047683716
6.596768749640727,-0.1280999928712844,-0.9694119691848756,-0.1493279933929443,0.0525000020861625,-1.5399999618530271,3.990000009536743
6.61681971848462,-0.1239520013332367,-1.014796018600464,-0.1424959897994995,-3.4649999141693115,-2.1875,5.144999980926514
6.636870687328512,-0.1568920016288757,-1.0621320009231567,-0.0922319963574409,-2.9574999809265137,-3.7799999713897705,3.990000009536743
6.656921656172405,-0.1888559907674789,-1.0477359294891355,-0.0583159998059272,1.8550000190734863,-8.71500015258789,1.9424999952316284
6.6769726250162975,-0.2174039930105209,-1.0301679372787476,-0.0756400004029274,5.985000133514404,-12.880000114440918,2.6600000858306885
6.69702359386019,-0.1829999983310699,-0.9977160096168518,-0.1036999970674514,9.239999771118164,-14.752500534057615,3.884999990463257
6.717074562704083,-0.1420079916715622,-0.9596520066261292,-0.1378600001335144,10.605000495910645,-15.207500457763672,4.96999979019165
6.737125531547975,-0.1083360016345977,-0.9364719986915588,-0.1390800029039383,9.082500457763672,-14.962499618530272,7.542500019073486
6.757176500391868,-0.0880839973688125,-0.941107988357544,-0.1327359974384308,4.637499809265137,-13.859999656677246,10.307499885559082
6.77722746923576,-0.08661999553442,-0.9603840112686156,-0.1163880005478859,1.3650000095367432,-13.352499961853027,11.357500076293944
6.797278438079653,-0.1115079969167709,-0.9601399898529052,-0.0812520012259483,1.5750000476837158,-13.15999984741211,11.024999618530272
6.8173294069235455,-0.13468798995018,-0.9628239870071412,-0.0656360015273094,1.8550000190734863,-12.25,10.850000381469728
6.837380375767438,-0.1237079948186874,-0.9764879941940308,-0.0749079957604408,1.5399999618530271,-9.170000076293944,10.1850004196167
6.857431344611331,-0.0814960002899169,-0.9501360058784484,-0.0751519948244094,2.8350000381469727,-5.425000190734863,8.417500495910645
6.877482313455223,-0.0487999990582466,-0.9264679551124572,-0.0761279985308647,1.3825000524520874,-1.2424999475479126,7.909999847412109
6.897533282299116,-0.0407480001449584,-0.9088999629020692,-0.0744199976325035,-2.047499895095825,3.447499990463257,7.752500057220459
6.917584251143008,-0.0322079993784427,-0.9235399961471558,-0.0451399981975555,-5.949999809265137,7.787499904632568,5.880000114440918
6.937635219986901,-0.0531919971108436,-0.9547719955444336,-0.0065879998728632,-7.297500133514404,10.762499809265137,2.065000057220459
6.9576861888307935,-0.1202920004725456,-0.9960079789161682,-0.0082959998399019,-7.262499809265137,13.265000343322754,-0.5600000023841858
6.977737157674686,-0.1503039896488189,-1.020408034324646,-0.0085399998351931,-4.585000038146973,15.837499618530272,-1.8899999856948853
6.997788126518579,-0.1212679967284202,-1.0047919750213623,0.0080519998446106,-0.3149999976158142,18.00749969482422,-3.447499990463257
7.017839095362471,-0.0778359994292259,-0.9625799655914308,0.0153719997033476,2.6424999237060547,18.1825008392334,-6.177500247955322
7.037890064206364,-0.0641719996929168,-0.9757559895515442,0.0226919986307621,3.0274999141693115,16.485000610351562,-9.362500190734863
7.057941033050256,-0.1083360016345977,-1.0765279531478882,0.0531919971108436,7.71750020980835,16.485000610351562,-13.230000495910645
7.077992001894149,-0.0980879962444305,-1.0606679916381836,0.0631959959864616,13.545000076293944,18.39249992370605,-12.6875
7.0980429707380415,-0.0544119998812675,-1.0067440271377563,0.0668559968471527,15.364999771118164,23.20499992370605,-12.074999809265137
7.118093939581934,-0.06734399497509,-0.9267119765281676,0.0309880003333091,12.3725004196167,31.989999771118164,-11.462499618530272
7.138144908425827,-0.224480003118515,-1.022603988647461,-0.1349319964647293,5.355000019073486,38.692501068115234,-5.582499980926514
7.158195877269719,-0.3394039869308471,-1.3556640148162842,-0.2708399891853332,-2.799999952316284,38.20249938964844,8.837499618530273
7.178246846113612,-0.4757999777793884,-1.5247559547424316,-0.1512800008058548,-0.6474999785423279,24.604999542236328,26.21500015258789
7.198297814957504,-0.5260639786720276,-1.3410239219665527,-0.0361119993031024,12.3725004196167,4.619999885559082,21.174999237060547
7.218348783801397,-0.3603879809379577,-1.050176024436951,0.0078079998493194,21.104999542236328,-1.8899999856948853,-5.949999809265137
7.2383997526452895,-0.2083759903907776,-0.8405799865722656,-0.0675880014896392,19.0049991607666,5.932499885559082,-23.520000457763672
7.258450721489182,-0.1385920047760009,-0.7764079570770264,-0.1803160011768341,3.569999933242798,17.56999969482422,-31.920000076293945
7.278501690333075,-0.138835996389389,-0.7803120017051697,-0.2535159885883331,-8.855000495910645,22.1200008392334,-30.817501068115234
7.298552659176967,-0.1310279965400695,-0.7961719632148743,-0.2378999888896942,-12.897500038146973,15.960000038146973,-23.57250022888184
7.31860362802086,-0.1015039980411529,-0.785923957824707,-0.2008119970560073,-9.484999656677246,6.159999847412109,-10.744999885559082
7.338654596864752,-0.1307840049266815,-0.8288679718971252,-0.2300919890403747,-7.157500267028809,-2.9749999046325684,4.742499828338623
7.358705565708645,-0.20032399892807,-0.9874680042266846,-0.2461960017681121,-9.55500030517578,-7.735000133514404,10.692500114440918
7.378756534552537,-0.1905639916658401,-1.093119978904724,-0.1781200021505355,-10.412500381469728,-7.454999923706055,3.255000114440918
7.39880750339643,-0.1381039917469024,-1.1175199747085571,-0.142984002828598,-13.142499923706056,-7.420000076293945,-11.84749984741211
7.418858472240323,-0.0868639945983886,-1.0828720331192017,-0.1812919974327087,-13.614999771118164,-9.414999961853027,-26.582500457763672
7.438909441084215,-0.056607998907566,-1.0218719244003296,-0.2115480005741119,-10.447500228881836,-12.31999969482422,-32.07749938964844
7.458960409928108,-0.0651479959487915,-0.9579439759254456,-0.2442439943552017,-7.227499961853027,-15.225000381469728,-30.55500030517578
7.479011378772,-0.0629519969224929,-0.8783999681472778,-0.2420479953289032,-5.740000247955322,-19.372499465942383,-29.190000534057617
7.499062347615893,-0.0778359994292259,-0.8064199686050415,-0.1983719915151596,-9.170000076293944,-22.872499465942383,-26.40749931335449
7.519113316459785,-0.0627079978585243,-0.7976359724998474,-0.153231993317604,-18.30500030517578,-24.95499992370605,-22.295000076293945
7.539164285303678,-0.0251320004463195,-0.8744959831237793,-0.1390800029039383,-27.020000457763672,-24.43000030517578,-18.725000381469727
7.559215254147571,-0.0051239999011158,-0.9906399846076964,-0.13468798995018,-27.895000457763672,-22.592500686645508,-16.065000534057617
7.579266222991463,0.0134199997410178,-1.060912013053894,-0.1517679989337921,-21.752500534057617,-21.052499771118164,-16.362499237060547
7.599317191835356,0.0224479995667934,-1.0348039865493774,-0.1442039906978607,-8.295000076293945,-20.614999771118164,-18.09499931335449
7.619368160679248,0.0292799994349479,-0.9091439843177797,-0.0936959981918335,6.369999885559082,-21.787500381469727,-19.372499465942383
7.639419129523141,0.0378200002014637,-0.7717719674110413,-0.0597799979150295,11.917500495910645,-22.872499465942383,-15.487500190734863
7.659470098367033,0.0070759998634457,-0.87254399061203,-0.0956479981541633,-7.070000171661377,-18.82999992370605,3.0625
7.679521067210926,-0.0302559994161129,-0.9289079904556274,-0.0954039990901947,-8.71500015258789,-18.864999771118164,7.822500228881836
7.6995720360548185,-0.1083360016345977,-0.9781959652900696,-0.1215119957923889,-5.897500038146973,-22.190000534057617,9.69499969482422
7.719623004898711,-0.1739719957113266,-1.0413919687271118,-0.1251720041036605,-0.1749999970197677,-23.78249931335449,10.8149995803833
7.739673973742604,-0.1227319985628128,-1.078724026679993,-0.0688079968094825,7.472499847412109,-23.1875,9.765000343322754
7.759724942586496,-0.0412359982728958,-1.106539964675903,-0.020983999595046,7.962500095367432,-28.6825008392334,2.8350000381469727
7.779775911430389,-0.0251320004463195,-1.1062959432601929,0.0407480001449584,2.345000028610229,-39.182498931884766,-8.855000495910645
7.799826880274281,-0.010491999797523,-1.0677440166473389,0.0444080010056495,-4.550000190734863,-47.810001373291016,-21.559999465942383
7.819877849118174,0.0556319989264011,-0.981123983860016,-0.1476199924945831,-12.232500076293944,-50.78499984741211,-23.57250022888184
7.8399288179620665,0.1012599989771843,-1.1150799989700315,-0.5028839707374573,-21.6825008392334,-44.88750076293945,-8.662500381469727
7.859979786805959,0.1695799976587295,-1.3922640085220337,-0.5860880017280579,-27.475000381469727,-30.415000915527344,3.009999990463257
7.880030755649852,0.2813319861888885,-1.6118639707565308,-0.5450959801673889,-26.145000457763672,-14.822500228881836,-1.3125
7.900081724493744,0.1424959897994995,-1.4893759489059448,-0.4399319887161255,-3.0450000762939453,-2.9574999809265137,-17.202499389648438
7.920132693337637,-0.0058559998869895,-1.0384639501571655,-0.3325719833374023,34.19499969482422,0.6474999785423279,-26.11000061035156
7.940183662181529,-0.2005679905414581,-0.6334239840507507,-0.2749879956245422,48.22999954223633,-0.9100000262260436,-19.63500022888184
7.960234631025422,-0.2518079876899719,-0.4267559945583343,-0.2100839912891388,38.02750015258789,-7.139999866485596,-8.399999618530273
7.9802855998693145,-0.1339560002088546,-0.5153279900550842,-0.1410319954156875,9.782500267028809,-5.320000171661377,2.887500047683716
8.000336568713207,-0.0912560001015663,-0.9223200082778932,-0.1927599906921386,-22.434999465942383,3.1675000190734863,19.54750061035156
8.0203875375571,-0.0500199981033802,-1.3505399227142334,-0.2535159885883331,-33.98500061035156,3.954999923706055,26.89750099182129
8.040438506400994,-0.0478239990770816,-1.4034879207611084,-0.2496119886636734,-6.387499809265137,7.402500152587891,23.83500099182129
8.060489475244887,-0.0875959992408752,-1.1958439350128174,-0.2710839807987213,28.315000534057617,9.012499809265137,10.202500343322754
8.080540444088781,-0.0924759954214096,-0.9720959663391112,-0.2422920018434524,43.57500076293945,8.399999618530273,-2.309999942779541
8.100591412932674,-0.1395680010318756,-0.8064199686050415,-0.224480003118515,43.2599983215332,9.0649995803833,-3.815000057220459
8.120642381776568,-0.1461559981107711,-0.7283399701118469,-0.1930039972066879,34.70249938964844,11.44499969482422,1.5750000476837158
8.140693350620461,-0.1207799986004829,-0.6605079770088196,-0.1725080013275146,24.114999771118164,16.012500762939453,10.079999923706056
8.160744319464355,-0.1168759986758232,-0.7046719789505005,-0.1861719936132431,7.71750020980835,19.70499992370605,19.18000030517578
8.180795288308248,-0.1261480003595352,-0.8313080072402954,-0.2008119970560073,-5.057499885559082,22.34749984741211,21.45499992370605
8.200846257152142,-0.1381039917469024,-0.913047969341278,-0.1776320040225982,-4.567500114440918,21.700000762939453,15.225000381469728
8.220897225996035,-0.1542080044746399,-0.912559986114502,-0.1420079916715622,1.5750000476837158,17.184999465942383,4.952499866485596
8.240948194839929,-0.1400559991598129,-0.8605879545211792,-0.100283995270729,4.53249979019165,10.86750030517578,-7.210000038146973
8.260999163683822,-0.1285879909992218,-0.770796000957489,-0.0607559978961944,-0.612500011920929,3.815000057220459,-20.545000076293945
8.281050132527715,-0.1320039927959442,-0.7917799949645996,-0.095160000026226,-6.965000152587891,4.987500190734863,-20.77250099182129
8.301101101371609,-0.1173639968037605,-0.918172001838684,-0.1178519949316978,-12.074999809265137,5.827499866485596,-18.795000076293945
8.321152070215502,-0.0261080004274845,-1.047003984451294,-0.0400159992277622,-12.074999809265137,5.547500133514404,-19.21500015258789
8.341203039059396,0.0861319974064827,-1.0950720310211182,-0.0478239990770816,-11.8125,10.237500190734863,-21.332500457763672
8.36125400790329,0.0578279979526996,-1.0918999910354614,-0.1671399921178817,-8.102499961853027,18.51499938964844,-22.3125
8.381304976747183,0.0553879998624324,-1.0369999408721924,-0.2149640023708343,2.327500104904175,23.940000534057617,-22.45249938964844
8.401355945591076,0.0785679966211319,-0.990395963191986,-0.1944679915904998,9.1875,28.50749969482422,-18.042499542236328
8.42140691443497,0.0195199996232986,-1.046515941619873,-0.0888160020112991,5.057499885559082,31.63999938964844,-11.619999885559082
8.441457883278863,-0.099551998078823,-1.214143991470337,0.0497759990394115,2.327500104904175,32.88249969482422,-2.5899999141693115
8.461508852122757,-0.1527439951896667,-1.205847978591919,0.0954039990901947,9.449999809265137,30.4325008392334,8.907500267028809
8.48155982096665,-0.1315159946680069,-1.0269960165023804,0.0407480001449584,14.315000534057615,27.51000022888184,18.96999931335449
8.501610789810544,-0.1556719988584518,-0.9491599798202516,-0.1134599968791008,6.877500057220459,26.232500076293945,21.50749969482422
8.521661758654437,-0.2520520091056824,-1.0884839296340942,-0.322079986333847,-9.625,26.670000076293945,29.24250030517578
8.54171272749833,-0.3540439903736114,-1.3300440311431885,-0.3572160005569458,-18.899999618530277,12.057499885559082,39.79500198364258
8.561763696342224,-0.6102439761161804,-1.309548020362854,-0.3501400053501129,-21.6299991607666,-7.210000038146973,48.369998931884766
8.581814665186117,-0.6143919825553894,-1.1633919477462769,-0.2813319861888885,-0.0874999985098838,-30.55500030517578,34.10750198364258
8.60186563403001,-0.2888959944248199,-0.9576999545097352,-0.2174039930105209,9.55500030517578,-36.470001220703125,16.467500686645508
8.621916602873904,-0.0056119998916983,-0.7783600091934204,-0.2830399870872497,6.579999923706055,-22.71500015258789,7.542500019073486
8.641967571717798,0.1468880027532577,-0.6300079822540283,-0.3601439893245697,-6.894999980926514,-4.042500019073486,-1.4175000190734863
8.662018540561691,0.1722639948129654,-0.5870639681816101,-0.4623799920082092,-20.77250099182129,8.78499984741211,-2.275000095367432
8.682069509405585,0.1183400005102157,-0.7307800054550171,-0.5231360197067261,-33.810001373291016,11.74250030517578,7.559999942779541
8.702120478249478,0.0265959985554218,-0.9184159636497498,-0.4701879918575287,-55.96500015258789,13.6850004196167,18.1825008392334
8.722171447093372,-0.1307840049266815,-1.110443949699402,-0.3513599932193756,-71.4000015258789,15.732500076293944,23.8174991607666
8.742222415937265,-0.2154520004987716,-1.0987319946289062,-0.2730360031127929,-52.08000183105469,17.045000076293945,21.104999542236328
8.762273384781158,-0.2193560004234314,-1.0265079736709597,-0.2930440008640289,-38.79750061035156,17.412500381469727,14.03499984741211
8.782324353625052,-0.1756799966096878,-0.9364719986915588,-0.3850319981575012,-28.997499465942383,15.295000076293944,7.71750020980835
8.802375322468945,-0.1954440027475357,-0.9008479714393616,-0.4299280047416687,-26.530000686645508,15.942500114440918,6.474999904632568
8.822426291312839,-0.1834879964590072,-0.8383839726448059,-0.4184599816799164,-23.64249992370605,16.747499465942383,8.662500381469727
8.842477260156732,-0.1417640000581741,-0.7542039752006531,-0.4169960021972656,-22.3125,14.06999969482422,11.375
8.862528229000626,-0.0993079990148544,-0.7520079612731934,-0.4370039999485016,-27.790000915527344,-3.4649999141693115,17.149999618530273
8.88257919784452,-0.1705559939146042,-0.8169119954109192,-0.4399319887161255,-36.470001220703125,-10.850000381469728,15.75
8.902630166688413,-0.2232600003480911,-0.8910880088806152,-0.4560360014438629,-30.22249984741211,-16.15250015258789,6.545000076293945
8.922681135532306,-0.1512800008058548,-0.7295599579811096,-0.3867399990558624,-5.355000019073486,-16.59000015258789,-8.994999885559082
8.9427321043762,-0.0919879972934722,-0.5926759839057922,-0.3242760002613067,-5.215000152587891,-20.19499969482422,-10.010000228881836
8.962783073220093,-0.0888160020112991,-0.510204017162323,-0.3118319809436798,-24.56999969482422,-35.01750183105469,3.815000057220459
8.982834042063987,-0.1978839933872223,-0.532651960849762,-0.2913359999656677,-27.177499771118164,-51.04750061035156,17.622499465942383
9.00288501090788,-0.2554679811000824,-0.5511959791183472,-0.2366800010204315,-12.232500076293944,-58.52000045776367,20.895000457763672
9.022935979751773,-0.2381439954042434,-0.7483479976654053,-0.3154920041561126,-2.450000047683716,-57.81999969482422,24.95499992370605
9.042986948595667,-0.2393639981746673,-0.5516839623451233,-0.4411519765853882,25.39249992370605,-52.5525016784668,27.614999771118164
9.06303791743956,-0.0417240001261234,-0.8232559561729431,-0.530456006526947,-8.085000038146973,-57.66249847412109,32.47999954223633
9.083088886283454,-0.0200079996138811,-0.8064199686050415,-0.2583959996700287,22.592500686645508,-29.102500915527344,20.42250061035156
9.103139855127347,-0.104432001709938,-0.8176440000534058,-0.0431879982352256,26.0049991607666,-22.75,-0.2100000083446502
9.12319082397124,-0.1293199956417083,-0.7373679876327515,-0.0361119993031024,5.425000190734863,-18.30500030517578,-13.807499885559082
9.143241792815134,-0.0319640003144741,-0.6497719883918762,-0.1146799996495246,-21.13999938964844,-0.9975000023841858,-23.415000915527344
9.163292761659028,-0.0785679966211319,-0.7146759629249573,-0.1998360008001327,-36.540000915527344,17.43000030517578,-13.387499809265137
9.183343730502921,-0.1566479951143264,-1.0865319967269895,-0.1656759977340698,-34.037498474121094,4.550000190734863,5.565000057220459
9.203394699346815,-0.2674239873886108,-1.2180479764938354,-0.1464000046253204,-6.422500133514404,-8.242500305175781,16.922500610351562
9.223445668190708,-0.3352559804916382,-1.1245959997177124,-0.1890999972820282,16.135000228881836,-15.960000038146973,8.592499732971191
9.243496637034601,-0.0871080011129379,-1.14655601978302,-0.1866599917411804,20.352500915527344,-19.70499992370605,-17.97249984741211
9.263547605878495,-0.1073599979281425,-1.134112000465393,-0.4250479936599731,18.07749938964844,3.640000104904175,-25.96999931335449
9.283598574722388,-0.2317999899387359,-1.1868159770965576,-0.3628279864788055,22.71500015258789,10.272500038146973,-21.104999542236328
9.303649543566282,-0.317931979894638,-1.199015974998474,-0.2137439996004104,35.80500030517578,4.847499847412109,-13.824999809265137
9.323700512410175,-0.3952800035476684,-1.1214239597320557,-0.191783994436264,29.049999237060547,1.5049999952316284,-11.0600004196167
9.343751481254069,-0.334524005651474,-1.2778279781341553,-0.1925159990787506,16.012500762939453,-3.674999952316284,2.1875
9.363802450097962,-0.3364759981632232,-1.3505399227142334,-0.2703520059585571,18.58500099182129,-6.527500152587891,19.18000030517578
9.383853418941856,-0.3579480051994324,-1.5181679725646973,-0.3579480051994324,21.997499465942383,-12.390000343322754,22.137500762939453
9.403904387785749,-0.3437959849834442,-1.5554999113082886,-0.3435519933700561,32.77750015258789,-8.050000190734863,3.5350000858306885
9.423955356629643,-0.3203719854354858,-1.6179639101028442,-0.3625839948654175,36.24250030517578,-1.6974999904632568,-17.167499542236328
9.444006325473536,-0.3457480072975158,-1.5384199619293213,-0.4506679773330688,40.775001525878906,-1.1200000047683716,-25.40999984741211
9.46405729431743,-0.3777119815349579,-1.829267978668213,-0.3830800056457519,8.487500190734863,6.737500190734863,-3.0274999141693115
9.484108263161323,-0.3067080080509186,-2.027639865875244,-0.2837719917297363,2.0999999046325684,2.275000095367432,-3.4649999141693115
9.504159232005216,-0.3023159801959991,-1.9942119121551516,-0.2042279988527298,3.587500095367432,-0.2275000065565109,-24.325000762939453
9.52421020084911,-0.3928399980068207,-2.0147080421447754,-0.399427980184555,-14.087499618530272,8.242500305175781,-42.4900016784668
9.544261169693003,-0.3403799831867218,-2.072291851043701,-0.3635599911212921,-26.21500015258789,13.579999923706056,-33.442501068115234
9.564312138536897,-0.1920280009508133,-2.4097440242767334,-0.2620559930801391,-32.84749984741211,15.067500114440918,-19.0575008392334
9.58436310738079,-0.281576007604599,-2.9789960384368896,-0.4006479978561401,-45.692501068115234,11.164999961853027,-30.799999237060547
9.604414076224684,-0.5360679626464844,-2.5607800483703613,-0.5807200074195862,-19.98500061035156,14.332500457763672,-52.46500015258789
9.624465045068577,-0.6941800117492676,-2.4051079750061035,-0.667095959186554,-1.627500057220459,16.922500610351562,-60.025001525878906
9.64451601391247,-0.5863319635391235,-1.6811599731445312,-0.7415159940719604,42.875,5.337500095367432,-55.10750198364258
9.664566982756364,-0.3911319971084595,-0.8998720049858093,-0.4948319792747497,87.5,-16.239999771118164,-55.650001525878906
9.684617951600258,-0.2366800010204315,-0.0178119987249374,-0.333547979593277,157.2375030517578,-44.20500183105469,-83.2125015258789
9.704668920444151,-0.2113039940595626,0.8622959852218628,-0.6897879838943481,173.35499572753906,-38.692501068115234,-86.78250122070312
9.724719889288044,-0.0631959959864616,1.010159969329834,-1.468392014503479,142.76499938964844,9.922499656677246,-74.8125
9.744770858131938,-0.2005679905414581,1.5921000242233276,-1.71727192401886,127.38249969482422,76.09000396728516,-21.2450008392334
9.764821826975831,-0.210327997803688,1.040903925895691,0.1861719936132431,-43.557498931884766,56.682498931884766,102.1125030517578
9.784872795819725,0.2823079824447632,-1.3659119606018066,0.957211971282959,-259.1925048828125,-43.3650016784668,99.01499938964844
9.804923764663618,0.0551439970731735,-1.755579948425293,0.3498959839344024,-66.56999969482422,14.962499618530272,-9.11750030517578
9.824974733507512,-0.042943999171257,-0.0114679997786879,0.2554679811000824,117.91500091552734,16.467500686645508,-65.7125015258789
9.845025702351405,-0.0241560004651546,0.8476560115814209,0.0807639956474304,88.2874984741211,5.862500190734863,-58.817501068115234
9.865076671195299,-0.0219599995762109,0.6356199979782104,-0.0119559997692704,-1.277500033378601,3.954999923706055,-16.362499237060547
9.885127640039192,-0.1093119978904724,-0.1229759976267814,0.0353799983859062,-53.20000076293945,-1.5924999713897705,34.59749984741211
9.905178608883086,-0.1093119978904724,-0.4230960011482239,0.0190319996327161,-41.09000015258789,-13.649999618530272,38.744998931884766
9.925229577726979,-0.0507519990205764,-0.3008520007133484,-0.0314759984612464,-21.104999542236328,-22.645000457763672,21.47249984741211
9.945280546570872,-0.061243999749422,-0.0370879992842674,0.0295239984989166,-3.0625,-23.415000915527344,-2.572499990463257
9.965331515414766,-0.0070759998634457,0.1483519971370697,0.0458719991147518,10.779999732971191,-26.040000915527344,-17.6924991607666
9.98538248425866,0.0463600009679794,-0.0078079998493194,0.0261080004274845,10.744999885559082,-27.895000457763672,-17.797500610351562
10.005433453102553,0.0605119988322258,-0.1022359952330589,0.0280600003898143,18.95249938964844,-30.065000534057617,-18.1825008392334
10.025484421946446,0.0912560001015663,0.0117119997739791,-0.0002439999952912,25.74250030517578,-31.01000022888184,-19.8799991607666
10.04553539079034,0.1266359984874725,0.0341599993407726,0.023667998611927,15.890000343322754,-27.52750015258789,-12.25
10.065586359634233,0.042943999171257,-0.0082959998399019,0.0273279994726181,-0.1225000023841857,-27.037500381469727,-4.409999847412109
10.085637328478127,0.0019519999623298,0.0153719997033476,-0.0243999995291233,-0.3499999940395355,-27.755001068115234,-5.284999847412109
10.10568829732202,-0.0602679997682571,-0.0100039998069405,-0.1034559980034828,2.432500123977661,-30.04750061035156,-5.039999961853027
10.125739266165914,-0.1795839965343475,-0.0590479969978332,-0.2198439985513687,8.78499984741211,-32.182498931884766,-3.0274999141693115
10.145790235009807,-0.1605519950389862,-0.0414799973368644,-0.4699440002441406,19.75749969482422,-32.79500198364258,-1.277500033378601
10.1658412038537,-0.3276920020580292,-0.1115079969167709,-1.012355923652649,9.520000457763672,-31.13249969482422,5.775000095367432
10.185892172697594,-1.0250439643859863,-0.9781959652900696,-2.0007998943328857,-48.09000015258789,-16.012500762939453,44.22249984741211
10.205943141541487,0.1324919909238815,-3.508963823318481,0.2671799957752228,-228.8650054931641,-55.1775016784668,114.08250427246094
10.22599411038538,0.1173639968037605,-5.937252044677734,-0.6617279648780823,-270.2699890136719,-3.674999952316284,146.96499633789062
10.246045079229274,-0.1932480037212371,-4.830955982208252,-0.6212239861488342,-73.63999938964844,10.97249984741211,-2.870000123977661
10.266096048073168,-0.3106119930744171,-2.128900051116944,-0.2032520025968551,127.20750427246094,-5.599999904632568,-107.7125015258789
10.286147016917061,-0.0644159987568855,-0.5489999651908875,-0.1117519959807396,137.8300018310547,17.02750015258789,-62.14250183105469
10.306197985760955,0.1861719936132431,-1.2536720037460327,-0.3940599858760834,2.309999942779541,-1.0850000381469729,16.677499771118164
10.326248954604848,-0.1224879994988441,-1.9627360105514529,-0.2081319987773895,-52.150001525878906,0.4724999964237213,55.58000183105469
10.346299923448742,-0.3215920031070709,-2.0222718715667725,-0.0263519994914531,-32.20000076293945,-7.0,53.04249954223633
10.366350892292635,-0.2632759809494018,-1.8219479322433472,-0.153231993317604,-28.927499771118164,-14.157500267028809,29.049999237060547
10.386401861136529,-0.2237479984760284,-1.5079200267791748,-0.2586399912834167,-24.09749984741211,-17.989999771118164,-2.1700000762939453
10.406452829980422,-0.1800719946622848,-1.230247974395752,-0.3250080049037933,-16.450000762939453,-13.422499656677246,-16.642499923706055
10.426503798824315,-0.0480679981410503,-0.9794159531593324,-0.3574599921703338,-11.585000038146973,-11.0600004196167,-13.912500381469728
10.446554767668209,0.0712479948997497,-0.8044679760932922,-0.3740519881248474,-17.045000076293945,-8.207500457763672,-7.577499866485596
10.466605736512102,0.0451399981975555,-0.732975959777832,-0.3067080080509186,-24.95499992370605,-3.9375,1.3825000524520874
10.486656705355996,0.0092719998210668,-0.8498519659042358,-0.2349720001220703,-31.692501068115234,-1.225000023841858,12.792500495910645
10.50670767419989,-0.0129319997504353,-1.0111359357833862,-0.2100839912891388,-32.462501525878906,-0.332500010728836,18.95249938964844
10.526758643043783,-0.1671399921178817,-1.0621320009231567,-0.2569319903850555,-25.637500762939453,-3.307500123977661,13.282500267028809
10.546809611887676,-0.2405840009450912,-1.0001559257507324,-0.313539981842041,-12.337499618530272,-8.592499732971191,-0.5600000023841858
10.56686058073157,-0.2413159906864166,-0.9025560021400452,-0.313539981842041,3.307500123977661,-9.800000190734863,-12.72249984741211
10.586911549575463,-0.1507920026779174,-0.9057279825210572,-0.3189080059528351,16.887500762939453,-5.320000171661377,-18.23500061035156
10.606962518419357,-0.1146799996495246,-0.7717719674110413,-0.3842999935150146,34.0724983215332,4.09499979019165,-20.49250030517578
10.62701348726325,-0.0200079996138811,-0.8047119975090027,-0.4055279791355133,19.18000030517578,-7.769999980926514,-18.200000762939453
10.647064456107143,0.0024399999529123,-0.8208159804344177,-0.3330599963665008,15.190000534057615,-9.082500457763672,-19.38999938964844
10.667115424951037,-0.0009759999811649,-0.6885679960250854,-0.3157359957695007,21.45499992370605,-6.002500057220459,-25.8125
10.68716639379493,-0.0190319996327161,-0.5997520089149475,-0.3816159963607788,14.0,-7.997499942779541,-29.137500762939453
10.707217362638824,-0.0588039979338645,-0.6085360050201416,-0.3445279896259308,-1.3300000429153442,-17.219999313354492,-29.592500686645508
10.727268331482717,-0.115167997777462,-0.659775972366333,-0.3067080080509186,-10.324999809265137,-25.497499465942383,-30.065000534057617
10.74731930032661,-0.1754359900951385,-0.8156920075416565,-0.2564440071582794,-16.83500099182129,-38.657501220703125,-24.114999771118164
10.767370269170504,-0.2030079960823059,-1.0104039907455444,-0.2464399933815002,-10.90250015258789,-55.807498931884766,-19.65250015258789
10.787421238014398,-0.2747440040111542,-1.0111359357833862,-0.2332639992237091,5.512499809265137,-75.07499694824219,-22.399999618530277
10.807472206858291,-0.2866999804973602,-0.8493639826774597,-0.30621999502182,23.65999984741211,-92.97750091552734,-22.575000762939453
10.827523175702185,-0.1515239924192428,-0.6922279596328735,-0.4592079818248749,31.114999771118164,-102.09500122070312,-17.02750015258789
10.847574144546078,0.0195199996232986,-0.6885679960250854,-0.5297240018844604,14.017499923706056,-96.05750274658205,-7.332499980926514
10.867625113389972,0.1219999939203262,-0.7964159846305847,-0.4953199923038482,-7.804999828338623,-84.36750030517578,-0.0874999985098838
10.887676082233865,0.1285879909992218,-1.0430999994277954,-0.5248439908027649,-19.424999237060547,-74.14749908447266,-2.134999990463257
10.907727051077758,0.002195999957621,-1.138260006904602,-0.4567679762840271,-13.737500190734863,-64.8375015258789,-5.809999942779541
10.927778019921652,-0.1781200021505355,-1.2126799821853638,-0.3198840022087097,-5.704999923706055,-62.54500198364258,-6.40500020980835
10.947828988765545,-0.3381839990615845,-1.1841319799423218,-0.1647000014781952,4.777500152587891,-66.34249877929688,-10.727499961853027
10.967879957609439,-0.4038199782371521,-1.044319987297058,-0.1363959908485412,10.97249984741211,-75.07499694824219,-14.682499885559082
10.987930926453332,-0.358924001455307,-0.907435953617096,-0.1332239955663681,2.782500028610229,-87.8324966430664,-11.9350004196167
11.007981895297226,-0.3250080049037933,-0.8415560126304626,-0.1442039906978607,-6.982500076293945,-100.22250366210938,-0.332500010728836
11.02803286414112,-0.3425759971141815,-0.8664439916610718,-0.2213079929351806,-8.417500495910645,-113.45249938964844,11.567500114440918
11.048083832985013,-0.2498559951782226,-0.9354959726333618,-0.2474159896373748,-5.96750020980835,-125.26499938964844,14.857500076293944
11.068134801828906,-0.095891997218132,-0.9799039959907532,-0.3272039890289306,-10.114999771118164,-126.92749786376952,11.672499656677246
11.0881857706728,-0.0483120009303092,-1.0155279636383057,-0.3330599963665008,-16.3799991607666,-124.84500122070312,3.884999990463257
11.108236739516693,-0.0507519990205764,-0.932811975479126,-0.2583959996700287,-11.77750015258789,-123.51499938964844,-6.982500076293945
11.128287708360586,-0.0351359993219375,-0.8405799865722656,-0.185928001999855,-10.920000076293944,-121.92250061035156,-15.24250030517578
11.14833867720448,-0.0919879972934722,-0.8108119964599609,-0.1768999993801117,-12.197500228881836,-121.7300033569336,-18.09499931335449
11.168389646048373,-0.1332239955663681,-0.8491199612617493,-0.1666519939899444,-14.279999732971191,-126.66500091552734,-17.954999923706055
11.188440614892267,-0.1808039993047714,-0.9020679593086244,-0.1803160011768341,-17.5,-132.17750549316406,-19.162500381469727
11.20849158373616,-0.1937360018491745,-0.990395963191986,-0.2100839912891388,-24.9375,-133.71749877929688,-19.4424991607666
11.228542552580054,-0.1622599959373474,-1.0516400337219238,-0.2300919890403747,-28.524999618530277,-132.21249389648438,-15.855000495910645
11.248593521423947,-0.1280999928712844,-1.0543240308761597,-0.2378999888896942,-25.09499931335449,-130.89999389648438,-12.739999771118164
11.26864449026784,-0.066611997783184,-0.9640439748764038,-0.2020319998264312,-22.434999465942383,-122.25499725341795,-14.734999656677246
11.288695459111734,-0.1268799901008606,-0.9508680105209352,-0.1500599980354309,-27.70249938964844,-119.62999725341795,-15.627500534057615
11.308746427955628,-0.2413159906864166,-0.9821000099182128,-0.1068719998002052,-29.067501068115234,-119.57749938964844,-15.855000495910645
11.328797396799521,-0.2986559867858886,-1.0116239786148071,-0.104432001709938,-27.002500534057617,-119.6125030517578,-16.8174991607666
11.348848365643414,-0.2669360041618347,-1.0008879899978638,-0.1327359974384308,-23.467500686645508,-115.88500213623048,-18.899999618530277
11.368899334487308,-0.216183990240097,-0.9501360058784484,-0.1617719978094101,-21.59499931335449,-110.49500274658205,-21.01749992370605
11.388950303331201,-0.1781200021505355,-0.9171959757804872,-0.1751919984817505,-21.36750030517578,-104.4749984741211,-21.01749992370605
11.409001272175095,-0.1517679989337921,-0.8901119828224182,-0.1727519929409027,-20.545000076293945,-98.82250213623048,-20.7549991607666
11.429052241018988,-0.196175992488861,-0.88401198387146,-0.1688479930162429,-22.102500915527344,-93.74749755859376,-20.5625
11.449103209862882,-0.2476599961519241,-0.962336003780365,-0.153231993317604,-26.354999542236328,-90.42250061035156,-19.145000457763672
11.469154178706775,-0.2627879977226257,-1.011379957199097,-0.1483519971370697,-25.82999992370605,-86.83499908447266,-18.707500457763672
11.489205147550669,-0.2437559962272644,-1.010892033576965,-0.1356640011072158,-22.977500915527344,-82.1449966430664,-17.325000762939453
11.509256116394562,-0.1942239999771118,-0.9918599724769592,-0.1137039959430694,-19.9325008392334,-76.72000122070312,-14.262499809265137
11.529307085238456,-0.1768999993801117,-0.9503799676895142,-0.1273680031299591,-17.342500686645508,-69.9124984741211,-13.720000267028809
11.549358054082349,-0.1976400017738342,-0.8966999650001526,-0.1173639968037605,-15.627500534057615,-62.70249938964844,-16.677499771118164
11.569409022926243,-0.2540040016174316,-0.8449719548225403,-0.1168759986758232,-15.295000076293944,-56.26250076293945,-20.28249931335449
11.589459991770136,-0.3023159801959991,-0.8069080114364624,-0.1276119947433471,-17.167499542236328,-52.53499984741211,-22.190000534057617
11.60951096061403,-0.2601040005683899,-0.8230119943618774,-0.0978439971804618,-23.3799991607666,-49.647499084472656,-24.342500686645508
11.629561929457923,-0.2544919848442077,-0.8459479808807373,-0.0980879962444305,-28.665000915527344,-44.08250045776367,-25.252500534057617
11.649612898301816,-0.280599981546402,-0.843995988368988,-0.0883279964327812,-30.537500381469727,-40.880001068115234,-28.45499992370605
11.66966386714571,-0.2683999836444855,-0.8500959873199463,-0.0812520012259483,-31.989999771118164,-37.782501220703125,-32.287498474121094
11.689714835989603,-0.2215519994497299,-0.8698599934577942,-0.1215119957923889,-32.900001525878906,-32.689998626708984,-34.685001373291016
11.709765804833497,-0.1995919942855835,-0.871567964553833,-0.1664080023765564,-32.935001373291016,-26.21500015258789,-37.02999877929688
11.72981677367739,-0.2608360052108764,-0.8644919991493225,-0.1695799976587295,-32.252498626708984,-22.049999237060547,-38.95500183105469
11.749867742521284,-0.3350119888782501,-0.9206119775772096,-0.1327359974384308,-34.42250061035156,-21.45499992370605,-38.290000915527344
11.769918711365177,-0.3247639834880829,-1.0521279573440552,-0.1019919961690902,-33.67000198364258,-19.89750099182129,-33.95000076293945
11.78996968020907,-0.2091079950332641,-1.1192280054092407,-0.1439599990844726,-25.51499938964844,-17.27250099182129,-28.227500915527344
11.810020649052964,-0.0134199997410178,-1.2775839567184448,-0.3735640048980713,-23.940000534057617,-12.28499984741211,-16.22249984741211
11.830071617896857,0.2049599885940551,-1.628943920135498,-0.5931639671325684,-23.239999771118164,-8.907500267028809,11.654999732971191
11.850122586740751,0.0139079997316002,-1.3878719806671145,-0.2713280022144317,8.890000343322754,-23.940000534057617,39.165000915527344
11.870173555584644,-0.2315559983253479,-0.6951559782028198,-0.0243999995291233,31.9375,-54.96749877929688,16.520000457763672
11.890224524428538,-0.10589599609375,-0.738099992275238,-0.2337519973516464,15.190000534057615,-41.125,-13.63249969482422
11.910275493272431,-0.0824719965457916,-0.9991799592971802,-0.4094319939613342,-10.744999885559082,-21.787500381469727,-28.630001068115234
11.930326462116325,-0.0619760006666183,-1.1963319778442385,-0.5165479779243469,-16.1875,-17.46500015258789,-29.067501068115234
11.950377430960218,-0.0617319978773593,-1.2534279823303225,-0.4740919768810272,-8.925000190734863,-29.924999237060547,-29.837499618530277
11.970428399804112,-0.130295991897583,-1.287343978881836,-0.4396879971027374,-3.902499914169312,-44.59000015258789,-39.095001220703125
11.990479368648005,-0.1781200021505355,-1.1450920104980469,-0.4201679825782776,4.742499828338623,-58.79999923706055,-53.47999954223633
12.010530337491899,-0.1525000035762787,-0.9096319675445556,-0.3908880054950714,9.135000228881836,-66.95500183105469,-58.712501525878906
12.030581306335792,-0.0922319963574409,-0.7078439593315125,-0.3977199792861938,5.144999980926514,-64.47000122070312,-56.90999984741211
12.050632275179685,-0.0043919999152421,-0.6370840072631836,-0.38332399725914,-3.552500009536743,-59.34249877929688,-54.005001068115234
12.070683244023579,-0.0143959997221827,-0.5914559960365295,-0.3403799831867218,-6.527500152587891,-60.34000015258789,-49.8224983215332
12.090734212867472,-0.0985759943723678,-0.7244359850883484,-0.3257399797439575,-13.265000343322754,-68.21500396728516,-39.54999923706055
12.110785181711366,-0.0895479992032051,-0.8940159678459167,-0.2710839807987213,-9.835000038146973,-75.11000061035156,-26.915000915527344
12.13083615055526,-0.0146399997174739,-0.9164639711380004,-0.2298479974269867,4.497499942779541,-76.05500030517578,-18.8125
12.150887119399153,0.0048799999058246,-0.9018239974975586,-0.2630319893360138,10.359999656677246,-78.47000122070312,-17.149999618530273
12.170938088243046,0.0100039998069405,-0.9620919823646544,-0.3020719885826111,11.00749969482422,-83.26499938964844,-19.4950008392334
12.19098905708694,-0.0631959959864616,-1.013819932937622,-0.3137840032577514,13.19499969482422,-88.62000274658203,-22.207500457763672
12.211040025930833,-0.085156001150608,-1.0086959600448608,-0.2278959900140762,11.84749984741211,-91.92749786376952,-24.20249938964844
12.231090994774727,-0.05197199806571,-1.0047919750213623,-0.1315159946680069,5.722499847412109,-89.3550033569336,-26.127500534057617
12.25114196361862,-0.0141519997268915,-0.9964959621429444,-0.1356640011072158,1.5750000476837158,-86.74749755859375,-31.412500381469727
12.271192932462514,-0.0190319996327161,-0.907435953617096,-0.2030079960823059,-2.117500066757202,-87.02750396728516,-34.650001525878906
12.291243901306407,-0.0234239995479583,-0.8869400024414062,-0.2149640023708343,-7.28000020980835,-85.59249877929688,-32.252498626708984
12.3112948701503,-0.0348920002579689,-0.8801079988479614,-0.1851959973573684,-9.204999923706056,-82.40750122070312,-29.26000022888184
12.331345838994194,-0.0146399997174739,-0.8600999712944031,-0.1566479951143264,-10.920000076293944,-80.90250396728516,-26.89750099182129
12.351396807838087,0.0185439996421337,-0.8632720112800598,-0.1991039961576461,-12.267499923706056,-79.5374984741211,-23.905000686645508
12.37144777668198,0.0253759995102882,-0.8625400066375732,-0.1742160022258758,-12.407500267028809,-76.40499877929688,-17.920000076293945
12.391498745525874,0.1056519970297813,-0.9476959705352784,-0.1341999918222427,-10.0625,-74.79499816894531,-9.5024995803833
12.411549714369768,0.1100439950823783,-0.933788001537323,-0.1754359900951385,15.154999732971191,-62.02000045776367,-7.647500038146973
12.431600683213661,0.0222040005028247,-0.948915958404541,-0.2371679991483688,10.762499809265137,-60.060001373291016,-0.4724999964237213
12.451651652057555,-0.0802759975194931,-0.9994239807128906,-0.1471319943666458,15.137499809265137,-57.994998931884766,3.587500095367432
12.471702620901448,0.0627079978585243,-0.9230519533157348,-0.1010159999132156,15.295000076293944,-45.20249938964844,-3.009999990463257
12.491753589745342,0.1193159967660904,-0.9713639616966248,-0.1088239997625351,4.742499828338623,-43.540000915527344,-7.472499847412109
12.511804558589235,0.1061399951577186,-1.0238239765167236,-0.1117519959807396,0.2800000011920929,-40.79249954223633,-12.390000343322754
12.531855527433128,0.0527039989829063,-1.0313879251480105,-0.1322479993104934,-1.662500023841858,-39.025001525878906,-12.914999961853027
12.551906496277022,-0.0019519999623298,-1.125815987586975,-0.3196399807929992,-7.997499942779541,-41.125,-5.477499961853027
12.571957465120915,-0.0436760000884532,-1.3051559925079346,-0.6500160098075867,-15.295000076293944,-35.630001068115234,4.847499847412109
12.592008433964809,0.0924759954214096,-1.549888014793396,-0.7305359840393066,-26.89750099182129,-17.639999389648438,5.09250020980835
12.612059402808702,0.281576007604599,-1.6779879331588743,-0.5919439792633057,-29.81999969482422,8.942500114440918,-12.880000114440918
12.632110371652596,0.1376159936189651,-1.4898639917373655,-0.4465200006961822,-8.015000343322754,25.14750099182129,-22.924999237060547
12.65216134049649,-0.1154119968414306,-1.0743319988250732,-0.363315999507904,21.875,21.315000534057617,-14.192500114440918
12.672212309340383,-0.3733199834823608,-0.6758800148963928,-0.2466839998960495,41.40499877929688,6.755000114440918,4.304999828338623
12.692263278184276,-0.4340759813785553,-0.4757999777793884,-0.1944679915904998,49.71749877929688,-12.005000114440918,20.8075008392334
12.71231424702817,-0.2640079855918884,-0.3935720026493072,-0.2176479995250702,43.837501525878906,-10.90250015258789,30.887500762939453
12.732365215872063,-0.1442039906978607,-0.6053639650344849,-0.3106119930744171,7.175000190734863,6.002500057220459,41.45750045776367
12.752416184715957,-0.0180559996515512,-0.9730719923973083,-0.3491639792919159,-26.6875,16.204999923706055,42.33250045776367
12.77246715355985,0.05197199806571,-1.0860439538955688,-0.3725879788398742,-25.549999237060547,29.38249969482422,32.584999084472656
12.792518122403743,-0.0019519999623298,-1.0599359273910522,-0.293287992477417,-6.335000038146973,35.70000076293945,23.975000381469727
12.812569091247637,-0.142984002828598,-1.0086959600448608,-0.2410719990730285,16.15250015258789,29.837499618530277,19.967500686645508
12.83262006009153,-0.2886520028114319,-0.9076799750328064,-0.2698639929294586,28.45499992370605,25.479999542236328,18.479999542236328
12.852671028935424,-0.3481879830360412,-0.8313080072402954,-0.3050000071525574,23.55500030517578,31.482500076293945,19.65250015258789
12.872721997779317,-0.2947520017623901,-0.8259400129318237,-0.3274479806423187,7.28000020980835,40.005001068115234,21.1924991607666
12.89277296662321,-0.2810879945755005,-0.7332199811935425,-0.2952399849891662,-5.232500076293945,45.622501373291016,24.46500015258789
12.912823935467104,-0.2603479921817779,-0.7154079675674438,-0.2591280043125152,-16.344999313354492,49.0,32.74250030517578
12.932874904310998,-0.2293599992990493,-0.7981239557266235,-0.2269199937582016,-27.299999237060547,51.97499847412109,41.49250030517578
12.952925873154891,-0.2113039940595626,-0.8857199549674988,-0.2169159948825836,-32.602500915527344,54.25,44.55500030517578
12.972976841998785,-0.2525399923324585,-0.8910880088806152,-0.2457079887390136,-30.4325008392334,55.45750045776367,43.61000061035156
12.993027810842678,-0.3169559836387634,-0.9454999566078186,-0.3440400063991546,-35.89250183105469,56.01750183105469,42.525001525878906
13.013078779686571,-0.2737680077552795,-0.9013359546661376,-0.3006079792976379,-20.667499542236328,57.22499847412109,35.3849983215332
13.033129748530465,-0.2242359966039657,-0.8696159720420837,-0.2503440082073211,-17.762500762939453,69.96500396728516,23.274999618530277
13.053180717374358,-0.1893439888954162,-0.8200839757919312,-0.2113039940595626,-12.5649995803833,79.90499877929688,13.59749984741211
13.073231686218252,-0.2652280032634735,-0.7934879660606384,-0.2108159959316253,-29.225000381469727,79.9749984741211,19.670000076293945
13.093282655062145,-0.3606320023536682,-0.8879159688949585,-0.2903600037097931,-37.06499862670898,75.45999908447266,25.74250030517578
13.113333623906039,-0.4633559882640838,-0.9762439727783204,-0.3659999966621399,-29.802499771118164,68.3550033569336,25.270000457763672
13.133384592749932,-0.4848279953002929,-0.9589200019836426,-0.3694159984588623,-19.6875,70.48999786376953,23.852500915527344
13.153435561593826,-0.4462759792804718,-0.9198799729347228,-0.2981680035591125,-10.587499618530272,75.00499725341797,22.68000030517578
13.173486530437719,-0.4165079891681671,-0.8708359599113464,-0.1808039993047714,-4.585000038146973,72.23999786376953,25.58500099182129
13.193537499281613,-0.3533119857311249,-0.769819974899292,-0.1407880038022995,-4.340000152587891,74.84750366210938,36.505001068115234
13.213588468125506,-0.2130119949579239,-0.7561559677124023,-0.2635200023651123,-6.159999847412109,86.32749938964844,49.227500915527344
13.2336394369694,0.0004879999905824,-0.6246399879455566,-0.6885679960250854,-3.972500085830689,100.55500030517578,59.37749862670898
13.253690405813293,-0.1446920037269592,-0.8271600008010864,-1.2021880149841309,-48.59749984741211,127.20750427246094,70.7699966430664
13.273741374657186,-0.5753520131111145,-0.9616039991378784,-1.0518839359283447,-47.23250198364258,123.23500061035156,83.4574966430664
13.29379234350108,-0.7061359882354736,-0.9474520087242126,-0.3989399969577789,-38.185001373291016,86.01249694824219,112.01750183105467
13.313843312344973,-0.4396879971027374,-1.0940959453582764,-0.3001199960708618,-22.434999465942383,52.709999084472656,115.18499755859376
13.333894281188867,-0.1622599959373474,-1.105563998222351,-0.4753119945526123,-1.3650000095367432,46.79500198364258,94.44750213623048
13.35394525003276,-0.0204959996044635,-1.012112021446228,-0.5716919898986816,-6.789999961853027,51.275001525878906,75.12750244140625
13.373996218876654,0.0678320005536079,-0.6875919699668884,-0.4772639870643616,3.920000076293945,69.42250061035156,49.06999969482422
13.394047187720547,0.0412359982728958,-0.5031279921531677,-0.4155319929122925,-4.952499866485596,76.28250122070312,31.43000030517578
13.41409815656444,-0.1356640011072158,-0.5387519598007202,-0.4645760059356689,-32.84749984741211,68.98500061035156,32.182498931884766
13.434149125408334,-0.3120760023593902,-0.8178879618644714,-0.5048359632492065,-54.38999938964844,52.09749984741211,48.89500045776367
13.454200094252228,-0.4052839875221252,-1.00381600856781,-0.5111799836158752,-35.787498474121094,28.052499771118164,66.67500305175781
13.474251063096121,-0.3762480020523071,-0.8478999733924866,-0.4694559872150421,4.042500019073486,9.012499809265137,76.73750305175781
13.494302031940014,-0.3118319809436798,-0.5250880122184753,-0.5028839707374573,30.83500099182129,-0.1225000023841857,75.3375015258789
13.514353000783908,-0.2364359945058822,-0.338916003704071,-0.4352959990501404,29.417499542236328,-6.474999904632568,56.9275016784668
13.534403969627801,-0.3020719885826111,-0.5045920014381409,-0.3376959860324859,-2.117500066757202,-2.1700000762939453,37.45000076293945
13.554454938471695,-0.4269999861717224,-0.7415159940719604,-0.3716119825839996,-27.614999771118164,-6.632500171661377,34.282501220703125
13.574505907315588,-0.4548159837722778,-0.9162200093269348,-0.5297240018844604,-40.18000030517578,-5.09250020980835,44.25749969482422
13.594556876159482,-0.4509119987487793,-1.0411479473114014,-0.7605479955673218,-32.970001220703125,-16.607500076293945,31.815000534057617
13.614607845003375,-0.4106519818305969,-1.02211594581604,-0.8056879639625549,-7.4375,-22.75,16.572500228881836
13.634658813847269,-0.4836079776287079,-0.958187997341156,-0.7627440094947815,13.212499618530272,-16.3799991607666,12.862500190734863
13.654709782691162,-0.2215519994497299,-0.8098359704017639,-0.4572559893131256,31.43000030517578,-30.239999771118164,-1.0149999856948853
13.674760751535056,-0.0087839998304843,-0.5404599905014038,-0.530456006526947,11.899999618530272,-21.717500686645508,6.929999828338623
13.694811720378949,-0.2510759830474853,-0.7905600070953369,-0.6619719862937927,-14.682499885559082,-21.665000915527344,40.98500061035156
13.714862689222842,-0.4970279932022095,-0.9906399846076964,-0.7034519910812378,-6.84250020980835,-18.725000381469727,47.98500061035156
13.734913658066736,-0.611952006816864,-1.0621320009231567,-0.5755959749221802,-6.877500057220459,-9.99250030517578,45.79750061035156
13.75496462691063,-0.5638839602470398,-0.8615639805793762,-0.4616479873657226,-25.795000076293945,3.325000047683716,35.47249984741211
13.775015595754523,-0.4938559830188751,-0.6829559803009033,-0.4396879971027374,-40.022499084472656,10.09749984741211,25.270000457763672
13.795066564598416,-0.4645760059356689,-0.6202479600906372,-0.5197200179100037,-37.6775016784668,8.172499656677246,22.225000381469727
13.81511753344231,-0.3828359842300415,-0.517524003982544,-0.493367999792099,-38.150001525878906,-7.542500019073486,35.525001525878906
13.835168502286203,-0.330375999212265,-0.7290719747543335,-0.5480239987373352,-36.522499084472656,-12.092499732971191,46.8125
13.855219471130097,-0.3298879861831665,-0.6807599663734436,-0.6292759776115417,-25.042499542236328,-9.204999923706056,35.17499923706055
13.87527043997399,-0.4228519797325134,-0.6856399774551392,-0.6558719873428345,-34.720001220703125,-2.309999942779541,25.32250022888184
13.895321408817884,-0.5072759985923767,-0.6778320074081421,-0.6180520057678223,-30.940000534057617,-2.4674999713897705,18.30500030517578
13.915372377661777,-0.6490399837493896,-0.6917399764060974,-0.5702279806137085,-18.07749938964844,-0.4200000166893005,16.15250015258789
13.93542334650567,-0.6146360039710999,-0.7354159951210022,-0.5204519629478455,-15.539999961853027,-4.445000171661377,13.142499923706056
13.955474315349564,-0.5136200189590454,-0.6749039888381958,-0.5995079874992371,-18.217500686645508,-3.255000114440918,8.819999694824219
13.975525284193457,-0.3813720047473907,-0.6265919804573059,-0.6614840030670166,-19.302499771118164,-2.9049999713897705,4.602499961853027
13.99557625303735,-0.4216319918632507,-0.5755959749221802,-0.6814919710159302,-20.70249938964844,1.5399999618530271,5.740000247955322
14.015627221881244,-0.48921999335289,-0.6012159585952759,-0.6121959686279297,-25.217500686645508,3.7100000381469727,5.162499904632568
14.035678190725138,-0.5799880027770996,-0.6043879985809326,-0.5890159606933594,-24.63999938964844,3.920000076293945,1.4700000286102295
14.055729159569031,-0.6146360039710999,-0.6353759765625,-0.602679967880249,-18.44499969482422,3.902499914169312,-0.4550000131130218
14.075780128412925,-0.5643720030784607,-0.6334239840507507,-0.6314719915390015,-11.147500038146973,1.8200000524520876,-1.8025000095367432
14.095831097256818,-0.508251965045929,-0.6256160140037537,-0.6261039972305298,-1.5225000381469729,-1.2424999475479126,-1.837499976158142
14.115882066100712,-0.4928799867630005,-0.6180520057678223,-0.6209799647331238,4.847499847412109,-1.4350000619888306,-0.3499999940395355
14.135933034944605,-0.522159993648529,-0.6595320105552673,-0.6368399858474731,7.349999904632568,0.5600000023841858,-0.1924999952316284
14.155984003788499,-0.5409479737281799,-0.6668519973754883,-0.6500160098075867,11.095000267028809,3.815000057220459,-3.325000047683716
14.176034972632392,-0.5514400005340576,-0.6463559865951538,-0.6573359966278076,15.557499885559082,5.162499904632568,-7.507500171661377
14.196085941476285,-0.5665680170059204,-0.6512359976768494,-0.6749039888381958,17.202499389648438,4.917500019073486,-10.307499885559082
14.216136910320179,-0.5709599852561951,-0.6622160077095032,-0.67221999168396,16.502500534057617,5.389999866485596,-10.56999969482422
14.236187879164072,-0.5489999651908875,-0.6912519931793213,-0.6644119620323181,15.837499618530272,6.300000190734863,-10.482500076293944
14.256238848007966,-0.5148400068283081,-0.6951559782028198,-0.6583119630813599,16.607500076293945,7.630000114440918,-12.967499732971191
14.27628981685186,-0.4601839780807495,-0.6539199948310852,-0.6219559907913208,17.797500610351562,8.539999961853027,-18.34000015258789
14.296340785695753,-0.4555479884147644,-0.6497719883918762,-0.6056079864501953,16.100000381469727,8.102499961853027,-19.372499465942383
14.316391754539646,-0.45237597823143,-0.6500160098075867,-0.5995079874992371,15.994999885559082,7.909999847412109,-18.40999984741211
14.33644272338354,-0.4318799972534179,-0.7117480039596558,-0.5924319624900818,18.67250061035156,7.962500095367432,-16.65999984741211
14.356493692227433,-0.4226079881191253,-0.7197999954223633,-0.5973119735717773,24.01000022888184,5.84499979019165,-18.88249969482422
14.376544661071327,-0.4328559935092926,-0.6953999996185303,-0.5780360102653503,26.11000061035156,2.065000057220459,-26.424999237060547
14.39659562991522,-0.4553039968013763,-0.721996009349823,-0.5275279879570007,26.72249984741211,-0.6474999785423279,-35.9275016784668
14.416646598759113,-0.4731159806251526,-0.7903159856796265,-0.5206959843635559,27.667499542236328,-2.2225000858306885,-42.630001068115234
14.436697567603007,-0.4889760017395019,-0.8688839673995972,-0.5677880048751831,29.627500534057617,-3.762500047683716,-47.057498931884766
14.4567485364469,-0.4965399801731109,-0.9032880067825316,-0.5633959770202637,36.15499877929688,-12.092499732971191,-53.11249923706055
14.476799505290794,-0.4455440044403076,-0.851315975189209,-0.525331974029541,44.32749938964844,-15.609999656677246,-58.869998931884766
14.496850474134687,-0.3642919957637787,-0.8330159783363342,-0.510204017162323,41.720001220703125,-14.315000534057615,-59.51750183105469
14.51690144297858,-0.3093920052051544,-0.7807999849319458,-0.4975159764289856,41.772499084472656,-10.13249969482422,-60.147499084472656
14.536952411822474,-0.3159799873828888,-0.7937319874763489,-0.505079984664917,44.36249923706055,-5.005000114440918,-59.220001220703125
14.557003380666368,-0.3479439914226532,-0.7727479934692383,-0.469211995601654,50.837501525878906,-0.8050000071525574,-56.03499984741211
14.577054349510261,-0.3669759929180145,-0.8215479850769043,-0.440663993358612,47.38999938964844,1.1200000047683716,-48.09000015258789
14.597105318354155,-0.3330599963665008,-0.9598959684371948,-0.4272439777851105,45.13249969482422,0.3849999904632568,-40.897499084472656
14.617156287198048,-0.2791360020637512,-1.0025960206985474,-0.3962559998035431,52.692501068115234,2.852499961853028,-43.38249969482422
14.637207256041942,-0.3020719885826111,-0.944279968738556,-0.3728320002555847,58.712501525878906,5.162499904632568,-49.75249862670898
14.657258224885835,-0.3391599953174591,-0.8669319748878479,-0.3694159984588623,59.34249877929688,2.940000057220459,-52.81499862670898
14.677309193729728,-0.3842999935150146,-0.8198399543762207,-0.3650240004062652,60.23500061035156,3.0975000858306885,-50.994998931884766
14.697360162573622,-0.3894239962100982,-0.7964159846305847,-0.3281799852848053,58.59000015258789,3.430000066757202,-48.89500045776367
14.717411131417515,-0.3486759960651397,-0.8539999723434448,-0.2662039995193481,54.442501068115234,3.884999990463257,-44.64250183105469
14.737462100261409,-0.3186639845371246,-0.9403759837150574,-0.2527839839458465,57.994998931884766,3.132499933242798,-40.75749969482422
14.757513069105302,-0.3030479848384857,-0.92085599899292,-0.2274079918861389,67.21749877929688,6.177500247955322,-39.65499877929688
14.777564037949196,-0.2752319872379303,-0.8486319780349731,-0.1890999972820282,73.0625,12.005000114440918,-34.02000045776367
14.79761500679309,-0.2383880019187927,-0.8003199696540833,-0.1856839954853058,70.45500183105469,16.747499465942383,-28.01749992370605
14.817665975636983,-0.2259439975023269,-0.7864120006561279,-0.1586000025272369,62.26499938964844,22.45249938964844,-25.6200008392334
14.837716944480876,-0.2398519963026046,-0.8095920085906982,-0.1327359974384308,56.13999938964844,33.932498931884766,-25.84749984741211
14.85776791332477,-0.2452199906110763,-0.8256959915161133,-0.1395680010318756,54.21500015258789,45.46500015258789,-25.864999771118164
14.877818882168663,-0.2091079950332641,-0.8354560136795044,-0.1895879954099655,48.09000015258789,57.907501220703125,-25.6200008392334
14.897869851012556,-0.2784039974212646,-0.8630279898643494,-0.2078879922628402,43.067501068115234,57.872501373291016,-27.405000686645508
14.91792081985645,-0.2593719959259033,-0.9340319633483888,-0.1266359984874725,31.7450008392334,58.380001068115234,-30.78249931335449
14.937971788700343,-0.2630319893360138,-0.9928359985351562,-0.1158999949693679,21.700000762939453,61.72249984741211,-29.45249938964844
14.958022757544237,-0.30621999502182,-0.9799039959907532,-0.2205759882926941,19.950000762939453,61.75749969482422,-26.774999618530277
14.97807372638813,-0.30621999502182,-0.9745360016822816,-0.4104079902172088,26.477500915527344,55.38750076293945,-28.15749931335449
14.998124695232024,-0.0734440013766288,-1.0943399667739868,-0.3635599911212921,19.72249984741211,57.41749954223633,-25.602500915527344
15.018175664075917,0.1415199935436248,-1.1770559549331665,-0.1951999962329864,20.57999992370605,70.36750030517578,-17.0625
15.03822663291981,0.0814960002899169,-1.0892159938812256,-0.2098399996757507,40.11000061035156,67.56749725341797,-15.015000343322754
15.058277601763704,0.0739319995045661,-1.0145519971847534,-0.2032520025968551,48.29999923706055,49.4375,-21.45499992370605
15.078328570607598,0.0934519991278648,-0.9118279814720154,-0.2293599992990493,35.997501373291016,50.62749862670898,-25.024999618530277
15.098379539451491,0.1593319922685623,-0.9552599787712096,-0.2613239884376526,12.75749969482422,63.962501525878906,-19.075000762939453
15.118430508295384,0.1185839995741844,-0.9450119733810424,-0.2510759830474853,17.149999618530273,93.41500091552734,-27.177499771118164
15.138481477139278,0.2256999909877777,-0.9481839537620544,-0.2952399849891662,6.054999828338623,91.99749755859376,-35.875
15.158532445983171,0.1703120023012161,-0.8932839632034302,-0.4030880033969879,7.472499847412109,110.80999755859376,-33.58250045776367
15.178583414827065,0.2047159969806671,-1.014796018600464,-0.3982079923152923,-14.699999809265137,100.04750061035156,-19.530000686645508
15.198634383670958,0.1842200011014938,-0.96697199344635,-0.2471719980239868,-13.947500228881836,109.25250244140624,-9.730000495910645
15.218685352514852,0.0893040001392364,-0.8832799792289734,-0.1471319943666458,-18.059999465942383,114.8000030517578,-4.987500190734863
15.238736321358745,0.0004879999905824,-0.9230519533157348,-0.1198039948940277,-23.799999237060547,111.07250213623048,-6.650000095367432
15.258787290202639,-0.0290360003709793,-0.8893799781799316,-0.1156559959053993,-17.010000228881836,108.11499786376952,-8.574999809265137
15.278838259046532,0.0204959996044635,-0.8703479766845703,-0.1180959939956665,-10.3774995803833,105.1050033569336,-2.065000057220459
15.298889227890426,0.0971119999885559,-0.907435953617096,-0.1634799987077713,-3.430000066757202,101.88500213623048,4.952499866485596
15.318940196734319,0.1295640021562576,-0.8898679614067078,-0.1981279999017715,4.65500020980835,97.72000122070312,8.119999885559082
15.338991165578213,0.1298079937696457,-0.8886479735374451,-0.2276519984006881,2.414999961853028,93.81749725341795,12.092499732971191
15.359042134422106,0.1224879994988441,-0.9684360027313232,-0.2159399986267089,-6.702499866485596,92.6624984741211,13.93000030517578
15.379093103266,0.1068719998002052,-0.982587993144989,-0.2174039930105209,-12.337499618530272,90.87750244140624,12.425000190734863
15.399144072109893,0.0932080000638961,-0.9718520045280457,-0.2132560014724731,-17.482500076293945,86.90499877929688,10.97249984741211
15.419195040953786,0.0651479959487915,-0.9535520076751708,-0.2335079908370971,-19.739999771118164,82.12750244140625,8.34749984741211
15.43924600979768,0.05197199806571,-0.9747799634933472,-0.2671799957752228,-21.01749992370605,77.5425033569336,8.645000457763672
15.459296978641573,0.1056519970297813,-1.0089399814605713,-0.2827959954738617,-21.997499465942383,74.30500030517578,10.43000030517578
15.479347947485467,0.1956879943609237,-1.0025960206985474,-0.2237479984760284,-20.877500534057617,74.18250274658203,9.047499656677246
15.49939891632936,0.1749479919672012,-0.9520879983901978,-0.2308239936828613,-19.424999237060547,73.55249786376953,6.615000247955322
15.519449885173254,0.1310279965400695,-0.9364719986915588,-0.205935999751091,-20.14249992370605,74.44499969482422,7.070000171661377
15.539500854017147,0.0961359962821006,-0.936959981918335,-0.1515239924192428,-18.09499931335449,72.13500213623047,7.087500095367432
15.55955182286104,0.0975999981164932,-0.9401319622993468,-0.1246839985251426,-17.377500534057617,66.72750091552734,5.897500038146973
15.579602791704934,0.128831997513771,-0.9616039991378784,-0.1266359984874725,-19.075000762939453,61.35499954223633,9.887499809265137
15.599653760548827,0.1559159904718399,-0.9403759837150574,-0.1537199914455413,-18.287500381469727,56.0525016784668,12.792500495910645
15.619704729392721,0.1712879985570907,-0.9320799708366394,-0.1695799976587295,-19.72249984741211,50.59249877929688,15.942500114440918
15.639755698236614,0.1766559928655624,-0.954039990901947,-0.2025199979543686,-18.32250022888184,45.622501373291016,19.61750030517578
15.659806667080508,0.1998360008001327,-0.9611159563064576,-0.2098399996757507,2.817500114440918,51.1349983215332,19.565000534057617
15.679857635924401,0.2076440006494522,-0.9559919834136964,-0.1676279902458191,2.8350000381469727,46.935001373291016,18.934999465942383
15.699908604768295,0.2098399996757507,-0.9550159573554992,-0.17323999106884,3.552500009536743,43.45249938964844,22.295000076293945
15.719959573612188,0.2166720032691955,-0.9515999555587769,-0.158843994140625,8.015000343322754,45.5,21.64750099182129
15.740010542456082,0.2181359976530075,-0.9479399919509888,-0.1420079916715622,10.114999771118164,46.27000045776367,20.002500534057617
15.760061511299975,0.2386319935321808,-0.9320799708366394,-0.1449359953403473,11.024999618530272,43.61000061035156,20.71999931335449
15.780112480143869,0.2498559951782226,-0.9403759837150574,-0.1700679957866668,9.5024995803833,40.12749862670898,20.387500762939453
15.800163448987762,0.2256999909877777,-1.015771985054016,-0.2862119972705841,7.227499961853027,38.20249938964844,18.53249931335449
15.820214417831655,0.2081319987773895,-1.15094792842865,-0.2696200013160705,1.5225000381469729,43.68000030517578,13.63249969482422
15.840265386675549,0.2171600013971328,-1.1902319192886353,-0.1668960005044937,-19.40749931335449,44.36249923706055,-0.1574999988079071
15.860316355519442,0.2842600047588348,-1.1006839275360107,-0.273279994726181,-22.049999237060547,40.25,-16.239999771118164
15.880367324363336,0.1993480026721954,-0.9945439696311952,-0.2461960017681121,-13.649999618530272,44.76499938964844,-19.354999542236328
15.90041829320723,0.0017079999670386,-1.1031240224838257,-0.2496119886636734,-13.177499771118164,45.622501373291016,-0.2100000083446502
15.920469262051123,-0.0446520000696182,-1.2605040073394775,-0.2500999867916107,1.0149999856948853,42.875,23.537500381469727
15.940520230895016,0.0024399999529123,-1.2173160314559937,-0.2544919848442077,14.734999656677246,42.33250045776367,29.46999931335449
15.96057119973891,0.0331839993596077,-1.0577399730682373,-0.2435119897127151,24.63999938964844,42.17499923706055,27.229999542236328
15.980622168582803,-0.0258639995008707,-0.975268006324768,-0.2544919848442077,30.415000915527344,46.84749984741211,27.002500534057617
16.000673137426695,-0.0346480011940002,-0.9991799592971802,-0.2579079866409302,31.95499992370605,57.435001373291016,29.71500015258789
16.02072410627059,-0.0380639992654323,-1.0509079694747925,-0.2469279915094375,31.377500534057617,70.31500244140625,28.57749938964844
16.04077507511448,-0.0649039968848228,-1.014796018600464,-0.2239919900894165,32.602500915527344,77.41999816894531,24.88500022888184
16.060826043958375,-0.1217559948563575,-0.9303719997406006,-0.1534759998321533,36.04999923706055,76.09000396728516,22.32999992370605
16.08087701280227,-0.1883679926395416,-0.7849479913711548,-0.0917439982295036,38.81499862670898,69.84249877929688,13.52750015258789
16.100927981646162,-0.1173639968037605,-0.786899983882904,-0.0919879972934722,30.1875,67.9000015258789,8.470000267028809
16.120978950490056,-0.0490439981222152,-0.8666880130767822,-0.0702719986438751,20.107500076293945,66.8499984741211,4.21750020980835
16.14102991933395,-0.0427000001072883,-0.921343982219696,-0.0751519948244094,15.78499984741211,63.34999847412109,1.0325000286102295
16.161080888177842,-0.0500199981033802,-0.9218319654464722,-0.0836919993162155,14.734999656677246,60.147499084472656,1.2074999809265137
16.181131857021736,-0.0551439970731735,-0.9591639637947084,-0.071492001414299,9.432499885559082,57.76750183105469,7.367499828338623
16.20118282586563,-0.0414799973368644,-1.0152839422225952,-0.047580000013113,5.197500228881836,54.07500076293945,14.822500228881836
16.221233794709523,-0.0087839998304843,-1.0487120151519775,-0.0214719995856285,5.477499961853027,50.73250198364258,15.3125
16.241284763553416,0.003171999938786,-1.0372439622879028,0.0024399999529123,10.167500495910645,46.165000915527344,12.494999885559082
16.26133573239731,-0.0075639998540282,-0.9781959652900696,0.0119559997692704,15.470000267028809,42.27999877929688,11.024999618530272
16.281386701241203,-0.0082959998399019,-0.9076799750328064,-0.0009759999811649,15.802499771118164,41.09000015258789,10.342499732971191
16.301437670085097,0.0256199985742568,-0.8691279888153076,-0.0200079996138811,8.680000305175781,41.59749984741211,10.552499771118164
16.32148863892899,0.0678320005536079,-0.8815720081329346,-0.0304999984800815,0.2100000083446502,43.48749923706055,8.907500267028809
16.341539607772884,0.0670999959111213,-0.9101200103759766,0.002195999957621,-5.215000152587891,45.20249938964844,3.692500114440918
16.361590576616777,0.0297679994255304,-0.8627839684486389,0.0324519984424114,-7.070000171661377,45.76250076293945,-4.917500019073486
16.38164154546067,0.0007319999858736,-0.8701039552688599,0.0624639987945556,-11.8125,44.345001220703125,-11.270000457763672
16.401692514304564,-0.0090279998257756,-0.9027999639511108,0.0409919992089271,-14.84000015258789,40.775001525878906,-15.050000190734863
16.421743483148457,-0.0124439997598528,-0.9330559968948364,0.033671997487545,-16.520000457763672,37.782501220703125,-17.290000915527344
16.44179445199235,-0.0107359997928142,-0.97599995136261,0.0339160002768039,-14.770000457763672,34.26499938964844,-18.76000022888184
16.461845420836244,0.0400159992277622,-1.0504199266433716,0.0139079997316002,-10.8149995803833,33.82749938964844,-19.65250015258789
16.481896389680138,0.1456679999828338,-1.011379957199097,0.0173240005970001,-6.860000133514404,36.57500076293945,-19.75749969482422
16.50194735852403,0.1300520002841949,-1.0379760265350342,-0.0324519984424114,-10.167500495910645,36.45249938964844,-14.36750030517578
16.521998327367925,0.1586000025272369,-1.0496879816055298,-0.0207399986684322,-8.960000038146973,37.04750061035156,-12.845000267028809
16.542049296211818,0.2120359987020492,-1.0577399730682373,0.0180559996515512,-6.195000171661377,43.66249847412109,-12.8100004196167
16.56210026505571,0.2064239978790283,-1.0782359838485718,0.0685639977455139,-4.829999923706055,48.9474983215332,-10.744999885559082
16.582151233899605,0.1054079979658126,-1.106539964675903,0.0121999997645616,-4.550000190734863,52.622501373291016,-6.072500228881836
16.6022022027435,-0.0775920003652572,-1.2148759365081787,-0.1934919953346252,-1.0674999952316284,48.685001373291016,4.690000057220459
16.622253171587392,-0.0924759954214096,-1.3937280178070068,-0.2037400007247924,-10.412500381469728,45.02750015258789,26.774999618530277
16.642304140431285,-0.1949559897184372,-1.608204007148743,-0.1464000046253204,-17.517499923706055,34.38750076293945,45.53499984741211
16.66235510927518,-0.4004040062427521,-1.6235759258270264,-0.0217159986495971,-3.1675000190734863,10.237500190734863,48.47499847412109
16.682406078119072,-0.2171600013971328,-1.0479799509048462,0.0004879999905824,17.517499923706055,-12.005000114440918,-5.670000076293945
16.702457046962966,-0.0880839973688125,-0.7078439593315125,-0.128831997513771,8.242500305175781,-6.650000095367432,-32.3224983215332
16.72250801580686,0.0187879987061023,-0.5428999662399292,-0.1844639927148819,-10.5,1.5399999618530271,-39.63750076293945
16.742558984650753,0.0300120003521442,-0.493367999792099,-0.205935999751091,-24.762500762939453,8.907500267028809,-34.247501373291016
16.762609953494646,0.0185439996421337,-0.5148400068283081,-0.2056919932365417,-32.3224983215332,9.274999618530272,-18.462499618530277
16.78266092233854,0.0490439981222152,-0.7524960041046143,-0.2171600013971328,-38.46500015258789,1.2599999904632568,9.887499809265137
16.802711891182433,0.052947998046875,-1.099951982498169,-0.2591280043125152,-32.724998474121094,-8.592499732971191,31.95499992370605
16.822762860026327,-0.0080519998446106,-1.3300440311431885,-0.2588839828968048,-18.09499931335449,-10.885000228881836,33.337501525878906
16.84281382887022,-0.0326960012316703,-1.279047966003418,-0.1500599980354309,-0.8924999833106995,-9.1875,16.047500610351562
16.862864797714114,0.0173240005970001,-1.135087966918945,-0.1522559970617294,5.53000020980835,-11.532500267028809,-6.965000152587891
16.882915766558007,0.0485559999942779,-1.0748199224472046,-0.1942239999771118,6.230000019073486,-13.912500381469728,-23.20499992370605
16.9029667354019,0.0297679994255304,-0.9210999608039856,-0.2464399933815002,14.279999732971191,-14.140000343322754,-31.412500381469727
16.923017704245794,0.0151279997080564,-0.7217519879341125,-0.2500999867916107,13.49250030517578,-11.84749984741211,-27.125
16.943068673089687,0.0180559996515512,-0.6519680023193359,-0.1983719915151596,1.9075000286102293,-10.342499732971191,-12.75749969482422
16.96311964193358,0.0793000012636184,-0.8254519701004028,-0.1341999918222427,-13.52750015258789,-10.989999771118164,0.4200000166893005
16.983170610777474,0.075883999466896,-0.9076799750328064,-0.0880839973688125,-17.657499313354492,-11.672499656677246,3.797500133514404
17.003221579621368,0.0805199965834617,-0.9462319612503052,-0.1093119978904724,-18.53249931335449,-14.40250015258789,4.375
17.02327254846526,0.0583159998059272,-1.0216280221939087,-0.1368840038776397,-18.76000022888184,-18.53249931335449,3.289999961853028
17.043323517309155,0.0470919981598854,-1.0621320009231567,-0.1320039927959442,-13.475000381469728,-21.36750030517578,0.8400000333786011
17.063374486153048,0.0500199981033802,-1.014796018600464,-0.1117519959807396,-3.815000057220459,-22.69750022888184,-1.5575000047683716
17.08342545499694,0.06734399497509,-0.9550159573554992,-0.1229759976267814,5.110000133514404,-22.75,-0.8050000071525574
17.103476423840835,0.0883279964327812,-0.8993839621543884,-0.1119959950447082,10.342499732971191,-21.45499992370605,3.307500123977661
17.12352739268473,0.0983319953083992,-0.8518039584159851,-0.1268799901008606,10.6225004196167,-21.717500686645508,8.260000228881836
17.143578361528622,0.0368440002202987,-0.8988959789276123,-0.1478639990091323,4.357500076293945,-24.342500686645508,12.61750030517578
17.163629330372515,-0.052947998046875,-0.9372040033340454,-0.0722239986062049,3.202500104904175,-28.84000015258789,14.90999984741211
17.18368029921641,-0.0978439971804618,-0.966484010219574,-0.0387960001826286,6.929999828338623,-35.665000915527344,16.922500610351562
17.203731268060302,-0.0744199976325035,-0.9874680042266846,-0.076615996658802,12.092499732971191,-40.86249923706055,16.59000015258789
17.223782236904196,-0.0258639995008707,-0.9708759784698486,-0.1024799942970275,17.412500381469727,-42.78749847412109,15.190000534057615
17.24383320574809,0.0768599957227706,-1.0160160064697266,-0.0624639987945556,18.200000762939453,-47.59999847412109,12.774999618530272
17.263884174591983,0.1495719999074936,-1.0850679874420166,-0.0607559978961944,17.2549991607666,-54.67000198364258,4.8125
17.283935143435876,0.1390800029039383,-1.1131279468536377,-0.0605119988322258,13.177499771118164,-64.90750122070312,-13.09000015258789
17.30398611227977,0.0844239965081214,-0.9874680042266846,-0.2105719894170761,19.63500022888184,-67.53250122070312,-10.989999771118164
17.324037081123663,-0.0827159956097602,-1.0623760223388672,-0.45237597823143,21.64750099182129,-67.84750366210938,0.4025000035762787
17.344088049967556,-0.0539239980280399,-1.3066200017929075,-0.4611600041389465,17.86750030517578,-57.119998931884766,10.605000495910645
17.36413901881145,0.1986159980297088,-1.307107925415039,-0.526308000087738,8.364999771118164,-31.815000534057617,5.232500076293945
17.384189987655343,0.2293599992990493,-1.1589999198913574,-0.5780360102653503,-15.487500190734863,-6.702499866485596,-11.829999923706056
17.404240956499237,0.1412760019302368,-0.9799039959907532,-0.4196799993515014,-36.2599983215332,8.295000076293945,-19.302499771118164
17.42429192534313,-0.0914999991655349,-0.8898679614067078,-0.2069119960069656,-40.407501220703125,3.430000066757202,-13.19499969482422
17.444342894187024,-0.3555079996585846,-0.8137399554252625,-0.062219999730587,-25.375,-14.542500495910645,-6.474999904632568
17.464393863030917,-0.4826319813728332,-0.7400519847869873,-0.0636840015649795,-7.297500133514404,-27.70249938964844,0.7875000238418579
17.48444483187481,-0.4135800004005432,-0.8452159762382507,-0.1725080013275146,-3.692500114440918,-27.63249969482422,11.270000457763672
17.504495800718704,-0.2330199927091598,-1.0809199810028076,-0.2708399891853332,-11.095000267028809,-20.895000457763672,24.604999542236328
17.524546769562598,-0.0478239990770816,-1.2065799236297607,-0.2410719990730285,-10.045000076293944,-16.922500610351562,31.815000534057617
17.54459773840649,0.0500199981033802,-1.0992200374603271,-0.2156959921121597,-4.96999979019165,-16.170000076293945,25.637500762939453
17.564648707250385,-0.1073599979281425,-1.010892033576965,-0.1756799966096878,-8.1899995803833,-16.55500030517578,23.309999465942383
17.584699676094278,-0.2269199937582016,-0.9925919771194458,-0.1783639937639236,-4.252500057220459,-22.049999237060547,22.645000457763672
17.60475064493817,-0.2610799968242645,-0.8691279888153076,-0.2235039919614792,4.724999904632568,-21.350000381469727,18.899999618530277
17.624801613782065,-0.2542479932308197,-0.7166280150413513,-0.2464399933815002,6.545000076293945,-17.797500610351562,18.74250030517578
17.64485258262596,-0.1930039972066879,-0.7024759650230408,-0.2159399986267089,-8.1899995803833,-14.052499771118164,22.46999931335449
17.664903551469852,-0.1485960036516189,-0.7722600102424622,-0.1751919984817505,-25.200000762939453,-11.970000267028809,26.21500015258789
17.684954520313745,-0.171775996685028,-0.8386279940605164,-0.1642120033502578,-33.79249954223633,-11.217499732971191,26.54750061035156
17.70500548915764,-0.2093520015478134,-0.8713240027427673,-0.1241960003972053,-36.29500198364258,-13.317500114440918,24.36000061035156
17.725056458001532,-0.2342399954795837,-0.9232959747314452,-0.1039439961314201,-39.07749938964844,-14.612500190734863,16.852500915527344
17.745107426845426,-0.187391996383667,-0.949891984462738,-0.1456679999828338,-33.25,-9.345000267028809,3.920000076293945
17.76515839568932,-0.1073599979281425,-0.98990797996521,-0.1942239999771118,-30.100000381469727,-3.377500057220459,1.5225000381469729
17.785209364533213,-0.05197199806571,-0.9513559937477112,-0.2291159927845001,-31.674999237060547,5.792500019073486,2.380000114440918
17.805260333377106,-0.1361519992351532,-1.079699993133545,-0.3445279896259308,-48.02000045776367,21.50749969482422,7.857500076293945
17.825311302221,-0.0558759979903698,-0.925491988658905,-0.264983981847763,-20.912500381469727,22.487499237060547,0.6299999952316284
17.845362271064893,-0.0497759990394115,-0.838871955871582,-0.2117919921875,-19.21500015258789,32.07749938964844,-8.1899995803833
17.865413239908786,-0.1024799942970275,-0.7961719632148743,-0.2071560025215149,-19.127500534057617,41.720001220703125,-14.06999969482422
17.88546420875268,-0.0548999980092048,-0.9325679540634156,-0.2561999857425689,-28.174999237060547,47.25,6.369999885559082
17.905515177596573,-0.140299990773201,-1.0243120193481443,-0.3830800056457519,-50.119998931884766,62.86000061035156,25.357500076293945
17.925566146440467,-0.20032399892807,-0.8252080082893372,-0.3067080080509186,-21.087499618530277,56.244998931884766,26.9325008392334
17.94561711528436,-0.2449759989976883,-0.6910079717636108,-0.1795839965343475,-21.94499969482422,56.157501220703125,20.212499618530277
17.965668084128254,-0.3362320065498352,-0.7315120100975037,-0.2452199906110763,-29.190000534057617,52.79750061035156,20.52750015258789
17.985719052972147,-0.3259840011596679,-0.8979200124740601,-0.3728320002555847,-44.99250030517578,49.45500183105469,38.0099983215332
18.00577002181604,-0.2820639908313751,-0.9503799676895142,-0.4006479978561401,-62.807498931884766,55.42250061035156,56.61249923706055
18.025820990659934,-0.228872001171112,-0.8078839778900146,-0.472383975982666,-81.63749694824219,50.557498931884766,71.4175033569336
18.045871959503827,-0.3032920062541961,-0.8640039563179016,-0.5280159711837769,-103.44249725341795,35.0525016784668,77.73500061035156
