Time (seconds),acc_x,acc_y,acc_z,gyro_x,gyro_y,gyro_z
0.02015742295731479,-0.1654319912195205,-0.9223200082778932,-0.1976400017738342,1.6974999904632568,-25.934999465942383,11.217499732971191
0.04031484591462958,-0.0785679966211319,-0.9154880046844482,-0.1812919974327087,-1.9774999618530276,-33.38999938964844,6.632500171661377
0.060472268871944374,-0.0468479990959167,-0.891819953918457,-0.1317600011825561,-2.9749999046325684,-33.11000061035156,2.345000028610229
0.08062969182925916,0.0234239995479583,-0.9406200051307678,-0.0541680008172988,-9.7475004196167,-33.38999938964844,-3.2725000381469727
0.10078711478657396,0.0641719996929168,-1.0665240287780762,-0.0163480006158351,-13.737500190734863,-27.107500076293945,-4.497499942779541
0.12094453774388875,-0.009515999816358,-1.183887958526611,-0.0749079957604408,-11.392499923706056,-18.14750099182129,-3.902499914169312
0.14110196070120354,-0.013663999736309,-1.150704026222229,-0.0617319978773593,-4.042500019073486,-10.5,-0.4200000166893005
0.16125938365851833,-0.0344039984047412,-1.0914119482040403,-0.0243999995291233,1.715000033378601,-3.745000123977661,3.377500057220459
0.18141680661583312,-0.0607559978961944,-1.0513960123062134,-0.018300000578165,6.072500228881836,-0.699999988079071,4.53249979019165
0.2015742295731479,-0.0961359962821006,-1.0125999450683594,-0.0356239974498748,9.7475004196167,3.202500104904175,5.057499885559082
0.2217316525304627,-0.1022359952330589,-0.9523319602012634,-0.0378200002014637,11.952500343322754,4.567500114440918,3.377500057220459
0.2418890754877775,-0.0749079957604408,-0.9271999597549438,-0.0348920002579689,8.27750015258789,5.057499885559082,3.3424999713897705
0.2620464984450923,-0.085156001150608,-0.9440360069274902,-0.0292799994349479,5.197500228881836,5.635000228881836,4.269999980926514
0.28220392140240713,-0.1161440014839172,-0.9584319591522216,-0.0222040005028247,4.65500020980835,5.355000019073486,3.377500057220459
0.30236134435972195,-0.1527439951896667,-0.952575981616974,-0.0053679998964071,5.355000019073486,4.025000095367432,1.4874999523162842
0.32251876731703677,-0.181779995560646,-0.9557479619979858,0.003171999938786,5.232500076293945,1.277500033378601,-1.715000033378601
0.3426761902743516,-0.191783994436264,-0.9620919823646544,0.0295239984989166,6.369999885559082,-2.6600000858306885,-6.772500038146973
0.3628336132316664,-0.1703120023012161,-0.96453195810318,0.0507519990205764,9.22249984741211,-6.912499904632568,-13.317500114440918
0.3829910361889812,-0.1651879996061325,-0.8940159678459167,0.0729559957981109,16.625,-9.59000015258789,-19.075000762939453
0.40314845914629605,-0.2144759893417358,-0.8769359588623047,0.0119559997692704,17.045000076293945,-14.420000076293944,-18.549999237060547
0.42330588210361086,-0.201787993311882,-0.9921039938926696,-0.2820639908313751,6.947500228881836,-14.734999656677246,-11.34000015258789
0.4434633050609257,0.1922719925642013,-1.3803080320358276,-0.3101239800453186,-19.40749931335449,-5.40749979019165,24.342500686645508
0.4636207280182405,0.2269199937582016,-1.181447982788086,-0.1393239945173263,10.90250015258789,8.767499923706055,15.119999885559082
0.4837781509755553,0.0627079978585243,-0.9550159573554992,-0.1256600022315979,26.477500915527344,8.34749984741211,-7.105000019073486
0.5039355739328701,-0.1246839985251426,-0.7988559603691101,-0.0775920003652572,26.477500915527344,16.940000534057617,-15.837499618530272
0.524092996890185,-0.2130119949579239,-0.7671359777450562,-0.0544119998812675,14.03499984741211,16.274999618530273,-14.06999969482422
0.5442504198474998,-0.2415599972009658,-0.8291119933128357,-0.047580000013113,0.8400000333786011,6.912499904632568,-9.887499809265137
0.5644078428048146,-0.2442439943552017,-0.8625400066375732,-0.018300000578165,-6.929999828338623,-2.3975000381469727,-4.53249979019165
0.5845652657621294,-0.157379999756813,-1.0106480121612549,-0.0085399998351931,-14.4375,-10.1850004196167,-0.1574999988079071
0.6047226887194442,-0.041967999190092,-1.1141040325164795,-0.0114679997786879,-5.792500019073486,-11.567500114440918,-0.2450000047683715
0.624880111676759,0.0356239974498748,-1.0362679958343506,-0.0741759985685348,8.015000343322754,-11.427499771118164,-4.585000038146973
0.6450375346340739,0.0746639966964721,-0.9128040075302124,-0.1215119957923889,12.967499732971191,-8.329999923706055,-5.722499847412109
0.6651949575913887,0.0334279984235763,-0.867419958114624,-0.1420079916715622,5.775000095367432,-0.699999988079071,-4.480000019073486
0.6853523805487035,-0.0117119997739791,-0.9232959747314452,-0.1605519950389862,-9.345000267028809,4.742499828338623,-3.9375
0.7055098035060183,-0.0319640003144741,-1.0572519302368164,-0.2073999941349029,-21.06999969482422,9.730000495910645,-3.3600001335144043
0.7256672264633331,-0.0412359982728958,-1.144115924835205,-0.2176479995250702,-19.145000457763672,14.4375,-1.1725000143051147
0.745824649420648,-0.0544119998812675,-1.1241079568862915,-0.1883679926395416,-9.782500267028809,16.83500099182129,-0.0350000001490116
0.7659820723779628,-0.0744199976325035,-1.046272039413452,-0.1485960036516189,-0.7350000143051147,16.940000534057617,-1.3825000524520874
0.7861394953352776,-0.0580720007419586,-0.9960079789161682,-0.1227319985628128,6.054999828338623,15.172499656677246,-2.992500066757202
0.8062969182925924,-0.0446520000696182,-0.949891984462738,-0.0983319953083992,9.7475004196167,15.329999923706056,-3.7799999713897705
0.8264543412499072,-0.0339160002768039,-0.9257360100746156,-0.0888160020112991,9.3100004196167,15.71500015258789,-4.550000190734863
0.8466117642072221,-0.0697840005159378,-0.9389119744300842,-0.0663679987192154,5.039999961853027,15.977499961853027,-4.392499923706055
0.8667691871645369,-0.0895479992032051,-0.9796599745750428,-0.0592919997870922,0.8050000071525574,14.0,-5.022500038146973
0.8869266101218517,-0.1112639978528022,-0.9720959663391112,-0.0688079968094825,0.4550000131130218,10.885000228881836,-4.795000076293945
0.9070840330791665,-0.1198039948940277,-0.9830759763717652,-0.0761279985308647,-3.009999990463257,6.720000267028809,-3.4825000762939453
0.9272414560364813,-0.1198039948940277,-0.9977160096168518,-0.0978439971804618,-6.107500076293945,2.309999942779541,-1.2424999475479126
0.9473988789937962,-0.0734440013766288,-1.0230920314788818,-0.124439999461174,-7.332499980926514,-1.680000066757202,1.4524999856948853
0.967556301951111,-0.0270840004086494,-1.0228480100631714,-0.1327359974384308,-5.53000020980835,-2.484999895095825,2.887500047683716
0.9877137249084258,0.0007319999858736,-1.0125999450683594,-0.130295991897583,-3.552500009536743,-1.0850000381469729,2.5899999141693115
1.0078711478657405,0.0126879997551441,-1.0043039321899414,-0.1259039938449859,-1.7675000429153442,1.190000057220459,1.2949999570846558
1.0280285708230552,0.0168359987437725,-0.9847840070724488,-0.1176079958677291,-0.1225000023841857,3.972500085830689,-0.0350000001490116
1.04818599378037,-0.0202520005404949,-0.9772199988365172,-0.1163880005478859,-0.4200000166893005,6.824999809265137,-1.5750000476837158
1.0683434167376846,-0.0434319972991943,-0.9879559874534608,-0.1185839995741844,-1.1549999713897705,6.772500038146973,-1.8025000095367432
1.0885008396949993,-0.0585599988698959,-1.0055240392684937,-0.1141919940710067,-1.627500057220459,5.757500171661377,-1.6449999809265137
1.108658262652314,-0.0644159987568855,-1.018455982208252,-0.1061399951577186,-0.875,4.21750020980835,-1.0499999523162842
1.1288156856096287,-0.06734399497509,-1.02211594581604,-0.1017479971051216,0.5074999928474426,2.1700000762939453,-0.699999988079071
1.1489731085669435,-0.0702719986438751,-1.0135760307312012,-0.0919879972934722,2.047499895095825,0.2100000083446502,-0.699999988079071
1.1691305315242582,-0.0727119967341423,-1.0077199935913086,-0.0834480002522468,2.9049999713897705,-1.680000066757202,-1.0325000286102295
1.1892879544815729,-0.0675880014896392,-1.0033279657363892,-0.0934519991278648,3.9375,-4.164999961853027,-1.2424999475479126
1.2094453774388876,-0.0614879988133907,-0.9962520003318788,-0.1093119978904724,5.284999847412109,-5.057499885559082,-1.399999976158142
1.2296028003962023,-0.042943999171257,-0.9828319549560548,-0.1110199987888336,5.96750020980835,-3.920000076293945,-1.715000033378601
1.249760223353517,-0.0226919986307621,-0.977952003479004,-0.0939399972558021,5.582499980926514,-2.940000057220459,-1.9075000286102293
1.2699176463108317,-0.0109799997881054,-0.9694119691848756,-0.0810080021619796,4.65500020980835,-2.484999895095825,-1.8550000190734863
1.2900750692681464,-0.0161039996892213,-0.9713639616966248,-0.0861319974064827,2.257499933242798,-2.275000095367432,-1.3650000095367432
1.3102324922254611,-0.0251320004463195,-0.9947879910469056,-0.0832040011882782,0.1749999970197677,-2.275000095367432,-0.4724999964237213
1.3303899151827758,-0.033671997487545,-1.009671926498413,-0.0863759964704513,-0.0525000020861625,-2.0999999046325684,0.5600000023841858
1.3505473381400905,-0.0261080004274845,-1.0025960206985474,-0.0861319974064827,0.4550000131130218,-1.3825000524520874,0.612500011920929
1.3707047610974052,-0.0307439994066953,-1.001863956451416,-0.0883279964327812,0.6650000214576721,-0.9449999928474426,0.4200000166893005
1.39086218405472,-0.0431879982352256,-0.9952759742736816,-0.0897919982671737,1.5225000381469729,-0.962499976158142,-0.1050000041723251
1.4110196070120347,-0.0548999980092048,-1.0025960206985474,-0.0885719954967498,1.4874999523162842,-2.0824999809265137,-0.8400000333786011
1.4311770299693494,-0.0509959980845451,-1.0201640129089355,-0.0912560001015663,2.362499952316284,-3.0975000858306885,-1.3650000095367432
1.451334452926664,-0.0517279990017414,-1.024799942970276,-0.0780799984931945,4.21750020980835,-4.287499904632568,-1.9600000381469729
1.4714918758839788,-0.0495319999754428,-1.0043039321899414,-0.0795440003275871,6.650000095367432,-5.232500076293945,-2.1524999141693115
1.4916492988412935,-0.0461159981787204,-0.9842959642410278,-0.0761279985308647,7.454999923706055,-6.667500019073486,-1.715000033378601
1.5118067217986082,-0.0453839972615242,-0.9703879952430724,-0.0775920003652572,7.0,-7.769999980926514,-1.5924999713897705
1.531964144755923,-0.0339160002768039,-0.952575981616974,-0.0775920003652572,5.320000171661377,-8.067500114440918,-1.3650000095367432
1.5521215677132376,-0.0214719995856285,-0.9662399888038636,-0.0751519948244094,1.9600000381469729,-7.682499885559082,-0.3849999904632568
1.5722789906705523,-0.0165919996798038,-0.9740479588508606,-0.0707599967718124,0.4375,-6.40500020980835,0.6299999952316284
1.592436413627867,-0.0292799994349479,-0.973315954208374,-0.0741759985685348,-1.5750000476837158,-5.320000171661377,1.0674999952316284
1.6125938365851817,-0.0395279973745346,-0.98990797996521,-0.0717360004782676,-4.199999809265137,-4.550000190734863,1.2949999570846558
1.6327512595424964,-0.0412359982728958,-1.0021079778671265,-0.0805199965834617,-4.514999866485596,-4.602499961853027,1.0499999523162842
1.6529086824998112,-0.0256199985742568,-1.009671926498413,-0.1034559980034828,-3.377500057220459,-3.132499933242798,0.8400000333786011
1.6730661054571259,-0.0170799996703863,-1.0135760307312012,-0.1085800006985664,-2.309999942779541,-2.1524999141693115,0.2800000011920929
1.6932235284144406,-0.0178119987249374,-1.00381600856781,-0.1088239997625351,-1.4524999856948853,-1.2074999809265137,-0.8575000166893005
1.7133809513717553,-0.0256199985742568,-1.0035719871520996,-0.1005280017852783,-1.5399999618530271,-0.5950000286102295,-1.5225000381469729
1.73353837432907,-0.033671997487545,-1.0082080364227295,-0.0919879972934722,-0.7175000309944153,-0.3149999976158142,-1.837499976158142
1.7536957972863847,-0.0390399992465972,-1.0111359357833862,-0.0939399972558021,0.9275000095367432,-0.0525000020861625,-2.012500047683716
1.7738532202436994,-0.0370879992842674,-1.010159969329834,-0.0868639945983886,2.484999895095825,0.0350000001490116,-1.837499976158142
1.794010643201014,-0.0322079993784427,-1.000643968582153,-0.0814960002899169,3.255000114440918,-0.0874999985098838,-1.9774999618530276
1.8141680661583288,-0.023667998611927,-0.9933239817619324,-0.0790559947490692,3.587500095367432,-0.2100000083446502,-2.012500047683716
1.8343254891156435,-0.020983999595046,-0.9869799613952636,-0.0793000012636184,3.307500123977661,0.4025000035762787,-1.8550000190734863
1.8544829120729582,-0.0217159986495971,-0.9896639585494996,-0.0773480013012886,2.5374999046325684,1.0499999523162842,-1.5575000047683716
1.874640335030273,-0.0246439985930919,-0.9918599724769592,-0.0775920003652572,2.345000028610229,1.5225000381469729,-1.4524999856948853
1.8947977579875876,-0.0202520005404949,-0.9901520013809204,-0.0751519948244094,2.134999990463257,2.0824999809265137,-1.0674999952316284
1.9149551809449024,-0.0175679996609687,-0.9989359974861144,-0.0732000023126602,1.5924999713897705,2.450000047683716,-0.4025000035762787
1.935112603902217,-0.0173240005970001,-0.9994239807128906,-0.0734440013766288,2.0999999046325684,2.747499942779541,-0.1400000005960464
1.9552700268595318,-0.018300000578165,-0.9999119639396667,-0.0734440013766288,2.484999895095825,3.184999942779541,-0.1400000005960464
1.9754274498168465,-0.020983999595046,-1.000643968582153,-0.0697840005159378,2.8350000381469727,3.7274999618530273,-0.262499988079071
1.9955848727741612,-0.0256199985742568,-1.0001559257507324,-0.0685639977455139,3.3424999713897705,3.920000076293945,-0.5074999928474426
2.015742295731476,-0.0270840004086494,-0.9918599724769592,-0.0649039968848228,3.745000123977661,4.235000133514404,-0.6650000214576721
2.035899718688791,-0.0202520005404949,-0.9835639595985411,-0.0631959959864616,2.992500066757202,4.182499885559082,-1.0149999856948853
2.0560571416461055,-0.0185439996421337,-0.9882000088691713,-0.0656360015273094,1.8200000524520876,4.340000152587891,-1.2074999809265137
2.0762145646034202,-0.0129319997504353,-0.9855159521102904,-0.065880000591278,1.3125,4.602499961853027,-1.1200000047683716
2.096371987560735,-0.0234239995479583,-0.9884439706802368,-0.0675880014896392,0.3675000071525574,4.952499866485596,-0.8050000071525574
2.1165294105180497,-0.028303999453783,-0.9923479557037354,-0.0690519958734512,-0.0175000000745058,4.8125,-0.5600000023841858
2.1366868334753644,-0.0270840004086494,-0.9943000078201294,-0.0668559968471527,0.1225000023841857,4.322500228881836,-0.0874999985098838
2.156844256432679,-0.0241560004651546,-0.9991799592971802,-0.0836919993162155,0.4200000166893005,4.427500247955322,0.332500010728836
2.177001679389994,-0.0124439997598528,-0.9943000078201294,-0.0883279964327812,0.4724999964237213,5.442500114440918,0.6650000214576721
2.1971591023473085,-0.0112239997833967,-0.9964959621429444,-0.0836919993162155,-0.7175000309944153,6.335000038146973,0.7175000309944153
2.217316525304623,-0.013663999736309,-0.9991799592971802,-0.0844239965081214,-1.2949999570846558,6.527500152587891,0.4375
2.237473948261938,-0.0224479995667934,-1.0001559257507324,-0.0800319984555244,-1.0325000286102295,6.545000076293945,0.1225000023841857
2.2576313712192526,-0.0402599982917308,-1.014796018600464,-0.0849120020866394,-0.699999988079071,6.247499942779541,-0.0175000000745058
2.2777887941765673,-0.0395279973745346,-1.0028399229049685,-0.0824719965457916,1.4874999523162842,6.457499980926514,0.1050000041723251
2.297946217133882,-0.0290360003709793,-0.9969840049743652,-0.0783239975571632,1.7675000429153442,6.037499904632568,0.4200000166893005
2.3181036400911967,-0.0246439985930919,-0.9935680031776428,-0.0678320005536079,1.3650000095367432,5.494999885559082,0.7524999976158142
2.3382610630485114,-0.0263519994914531,-0.9943000078201294,-0.0744199976325035,1.347499966621399,4.8125,0.8924999833106995
2.358418486005826,-0.0229359995573759,-0.9964959621429444,-0.0729559957981109,1.662500023841858,4.375,0.8050000071525574
2.378575908963141,-0.0273279994726181,-0.9894199967384338,-0.065880000591278,2.257499933242798,4.252500057220459,0.962499976158142
2.3987333319204556,-0.0324519984424114,-0.982587993144989,-0.0700279995799064,1.3125,4.514999866485596,1.7675000429153442
2.4188907548777703,-0.0375759974122047,-0.97843998670578,-0.056607998907566,-0.8400000333786011,4.8125,2.694999933242798
2.439048177835085,-0.0375759974122047,-0.982587993144989,-0.0500199981033802,-3.009999990463257,4.21750020980835,3.289999961853028
2.4592056007923997,-0.0358680002391338,-0.9896639585494996,-0.0583159998059272,-4.409999847412109,3.0625,3.0625
2.4793630237497144,-0.0287919994443655,-1.0052800178527832,-0.0675880014896392,-3.954999923706055,2.380000114440918,3.115000009536743
2.499520446707029,-0.0229359995573759,-1.014796018600464,-0.0793000012636184,-3.0625,1.8025000095367432,3.202500104904175
2.519677869664344,-0.0217159986495971,-1.048956036567688,-0.0934519991278648,-3.7799999713897705,0.612500011920929,4.777500152587891
2.5398352926216585,-0.0285479985177516,-0.9713639616966248,-0.1032119989395141,2.6075000762939453,2.3975000381469727,3.815000057220459
2.5599927155789732,-0.0287919994443655,-1.0284600257873535,-0.104432001709938,-2.432500123977661,2.5199999809265137,1.7324999570846558
2.580150138536288,-0.0370879992842674,-1.0067440271377563,-0.1263919919729232,1.8200000524520876,2.5199999809265137,0.8224999904632568
2.6003075614936026,-0.0614879988133907,-1.0086959600448608,-0.0944279953837394,3.3600001335144043,4.112500190734863,2.694999933242798
2.6204649844509174,-0.057583998888731,-1.0167479515075684,-0.1105320006608963,5.09250020980835,2.5374999046325684,1.2949999570846558
2.640622407408232,-0.0685639977455139,-1.019919991493225,-0.1107759997248649,7.595000267028809,0.5425000190734863,0.4724999964237213
2.6607798303655468,-0.0756400004029274,-1.002351999282837,-0.1105320006608963,11.4975004196167,1.0674999952316284,0.962499976158142
2.6809372533228615,-0.1036999970674514,-0.9838079810142516,-0.1093119978904724,13.422499656677246,0.332500010728836,0.2100000083446502
2.701094676280176,-0.1015039980411529,-0.9589200019836426,-0.1180959939956665,12.984999656677246,-1.225000023841858,0.262499988079071
2.721252099237491,-0.0990639999508857,-0.9523319602012634,-0.1178519949316978,9.887499809265137,-2.414999961853028,0.6650000214576721
2.7414095221948056,-0.1146799996495246,-0.9637999534606934,-0.0968680009245872,7.385000228881836,-3.8324999809265137,0.612500011920929
2.7615669451521203,-0.1412760019302368,-0.9452559947967528,-0.0834480002522468,4.550000190734863,-7.612500190734863,-0.3499999940395355
2.781724368109435,-0.1317600011825561,-0.9398880004882812,-0.0856439992785453,3.0975000858306885,-10.1850004196167,-0.9800000190734864
2.8018817910667497,-0.1078479960560798,-0.928663969039917,-0.0822279974818229,2.502500057220459,-11.917500495910645,-1.924999952316284
2.8220392140240644,-0.075883999466896,-0.96453195810318,-0.0602679997682571,-2.134999990463257,-13.440000534057615,-0.8400000333786011
2.842196636981379,-0.0583159998059272,-1.0152839422225952,-0.0424560010433197,-1.995000004768372,-12.074999809265137,2.694999933242798
2.862354059938694,-0.0295239984989166,-1.0338280200958252,-0.0197639986872673,-5.949999809265137,-18.270000457763672,4.53249979019165
2.8825114828960086,0.0012199999764561,-1.0440759658813477,-0.0141519997268915,-8.225000381469727,-18.34000015258789,8.470000267028809
2.9026689058533233,-0.0041479999199509,-1.050663948059082,0.0212280005216598,-7.034999847412109,-15.662500381469728,10.167500495910645
2.922826328810638,-0.0380639992654323,-1.010892033576965,0.0517279990017414,-3.3424999713897705,-12.074999809265137,9.449999809265137
2.9429837517679527,-0.0680759996175766,-1.0077199935913086,0.0331839993596077,-5.880000114440918,-10.9375,7.699999809265137
2.9631411747252674,-0.095160000026226,-1.0535919666290283,0.0270840004086494,-5.704999923706055,-9.0649995803833,8.225000381469727
2.983298597682582,-0.0939399972558021,-1.0487120151519775,0.0351359993219375,-1.8550000190734863,-8.225000381469727,6.142499923706055
3.003456020639897,-0.0192760005593299,-1.0287039279937744,0.0434319972991943,1.5575000047683716,-8.592499732971191,2.432500123977661
3.0236134435972115,-0.0397720001637935,-0.9401319622993468,0.0663679987192154,6.824999809265137,-6.369999885559082,0.5249999761581421
3.0437708665545262,-0.0436760000884532,-0.9311040043830872,0.0739319995045661,3.5174999237060547,-6.125,-2.1700000762939453
3.063928289511841,-0.0175679996609687,-0.933788001537323,0.0609999969601631,3.150000095367432,-5.110000133514404,-4.199999809265137
3.0840857124691556,-0.0129319997504353,-0.8874279856681824,0.0646599978208541,3.8324999809265137,-4.829999923706055,-7.752500057220459
3.1042431354264703,-0.0624639987945556,-0.8732759952545166,0.0468479990959167,-1.5399999618530271,-5.862500190734863,-13.52750015258789
3.124400558383785,-0.1578679978847503,-0.9689239859580994,-0.0126879997551441,-11.4975004196167,-6.230000019073486,-13.859999656677246
3.1445579813410998,-0.1922719925642013,-1.1802279949188232,-0.13298000395298,-21.84000015258789,-7.577499866485596,-6.440000057220459
3.1647154042984145,-0.0832040011882782,-1.3971439599990845,-0.2030079960823059,-21.01749992370605,-6.615000247955322,6.772500038146973
3.184872827255729,-0.0034159999340772,-1.1936479806900024,-0.0641719996929168,7.630000114440918,-7.804999828338623,18.655000686645508
3.205030250213044,0.0119559997692704,-0.8844999670982361,-0.0678320005536079,19.232500076293945,-10.552499771118164,20.86000061035156
3.2251876731703586,0.0207399986684322,-0.7524960041046143,-0.0978439971804618,9.029999732971191,-7.28000020980835,16.362499237060547
3.2453450961276733,0.0197639986872673,-0.7207759618759155,-0.0968680009245872,-2.0824999809265137,-5.652500152587891,7.367499828338623
3.265502519084988,-0.0287919994443655,-0.782263994216919,-0.0888160020112991,-15.34749984741211,-3.8324999809265137,-0.3499999940395355
3.2856599420423027,-0.1249279975891113,-0.9308599829673768,-0.0854000002145767,-23.030000686645508,-2.5374999046325684,-4.619999885559082
3.3058173649996174,-0.1715319901704788,-1.0589599609375,-0.0910120010375976,-19.46000099182129,-5.005000114440918,-9.887499809265137
3.325974787956932,-0.1622599959373474,-1.067988038063049,-0.0897919982671737,-11.112500190734863,-8.557499885559082,-14.279999732971191
3.346132210914247,-0.1007720008492469,-1.0640839338302612,-0.1202920004725456,-8.154999732971191,-11.182499885559082,-15.119999885559082
3.3662896338715615,-0.0487999990582466,-1.060912013053894,-0.1595759987831115,-5.547500133514404,-13.230000495910645,-13.947500228881836
3.3864470568288763,-0.0397720001637935,-1.0587159395217896,-0.1854400038719177,-4.304999828338623,-12.984999656677246,-9.712499618530272
3.406604479786191,-0.0417240001261234,-1.0836039781570437,-0.1661639958620071,-3.7100000381469727,-12.704999923706056,-4.269999980926514
3.4267619027435057,-0.0312319993972778,-1.097999930381775,-0.1461559981107711,2.450000047683716,-10.587499618530272,1.277500033378601
3.4469193257008204,-0.0387960001826286,-1.0411479473114014,-0.0973559990525245,9.642499923706056,-7.997499942779541,2.870000123977661
3.467076748658135,-0.0100039998069405,-0.9567239880561828,-0.0749079957604408,11.672499656677246,-0.699999988079071,0.3675000071525574
3.48723417161545,-0.006343999877572,-0.9367159605026244,-0.0609999969601631,10.359999656677246,3.220000028610229,-2.2925000190734863
3.5073915945727645,0.0070759998634457,-0.9528200030326844,-0.071492001414299,7.682499885559082,6.527500152587891,-3.902499914169312
3.527549017530079,0.0070759998634457,-0.9730719923973083,-0.0597799979150295,5.949999809265137,10.6225004196167,-4.585000038146973
3.547706440487394,-0.0090279998257756,-0.9821000099182128,-0.0541680008172988,5.267499923706055,14.262499809265137,-4.462500095367432
3.5678638634447086,-0.0358680002391338,-0.9789279699325562,-0.0539239980280399,4.514999866485596,15.732500076293944,-4.514999866485596
3.5880212864020233,-0.0697840005159378,-0.9713639616966248,-0.0592919997870922,2.747499942779541,15.837499618530272,-3.325000047683716
3.608178709359338,-0.095891997218132,-0.9679479598999025,-0.0590479969978332,0.1400000005960464,14.140000343322754,-1.4350000619888306
3.6283361323166528,-0.104432001709938,-0.9862479567527772,-0.0710039958357811,-3.0625,11.84749984741211,0.2975000143051147
3.6484935552739675,-0.0905239954590797,-0.9938119649887084,-0.0841799974441528,-3.972500085830689,9.852499961853027,0.8050000071525574
3.668650978231282,-0.0773480013012886,-0.9950319528579712,-0.0883279964327812,-4.182499885559082,8.4350004196167,0.5425000190734863
3.688808401188597,-0.0707599967718124,-0.9996680021286012,-0.0922319963574409,-4.900000095367432,6.615000247955322,0.3149999976158142
3.7089658241459116,-0.066611997783184,-1.012355923652649,-0.0900359973311424,-4.829999923706055,4.952499866485596,0.1400000005960464
3.7291232471032263,-0.0668559968471527,-1.006500005722046,-0.0905239954590797,-3.202500104904175,3.4825000762939453,-0.4375
3.749280670060541,-0.0697840005159378,-1.0008879899978638,-0.0846679955720901,-1.5399999618530271,2.747499942779541,-0.875
3.7694380930178557,-0.0788119956851005,-0.9989359974861144,-0.0761279985308647,-0.2975000143051147,2.0299999713897705,-1.1725000143051147
3.7895955159751704,-0.0790559947490692,-0.9984479546546936,-0.066611997783184,0.5950000286102295,1.225000023841858,-0.962499976158142
3.809752938932485,-0.0702719986438751,-0.9991799592971802,-0.0644159987568855,0.9975000023841858,0.0874999985098838,-0.8050000071525574
3.8299103618898,-0.0553879998624324,-0.9964959621429444,-0.0656360015273094,1.0149999856948853,-0.7875000238418579,-0.3499999940395355
3.8500677848471145,-0.047335997223854,-0.9901520013809204,-0.0663679987192154,0.6650000214576721,-1.0850000381469729,0.2450000047683715
3.8702252078044292,-0.0451399981975555,-0.9869799613952636,-0.0668559968471527,-0.5074999928474426,-1.4874999523162842,0.5950000286102295
3.890382630761744,-0.0500199981033802,-0.9808799624443054,-0.0753960013389587,-1.2949999570846558,-1.9424999952316284,0.5425000190734863
3.9105400537190587,-0.0527039989829063,-0.9879559874534608,-0.0829599946737289,-2.2049999237060547,-2.414999961853028,0.1050000041723251
3.9306974766763734,-0.0502640008926391,-0.9952759742736816,-0.0871080011129379,-2.240000009536743,-2.694999933242798,-0.3849999904632568
3.950854899633688,-0.0451399981975555,-1.0008879899978638,-0.0907679945230484,-1.7324999570846558,-2.677500009536743,-0.6299999952316284
3.971012322591003,-0.0407480001449584,-1.0047919750213623,-0.0883279964327812,-1.0850000381469729,-2.327500104904175,-0.5074999928474426
3.9911697455483175,-0.0368440002202987,-1.0008879899978638,-0.08661999553442,-0.5074999928474426,-2.2049999237060547,-0.2450000047683715
4.011327168505632,-0.0322079993784427,-0.9991799592971802,-0.0829599946737289,-0.332500010728836,-2.065000057220459,-0.0175000000745058
4.031484591462947,-0.0334279984235763,-0.9911279678344728,-0.0771040022373199,-0.2275000065565109,-1.9075000286102293,0.2100000083446502
4.051642014420262,-0.037331998348236,-0.9833199977874756,-0.076615996658802,-0.7350000143051147,-1.837499976158142,0.2975000143051147
4.071799437377576,-0.0414799973368644,-0.9877119660377502,-0.0844239965081214,-2.887500047683716,-1.5225000381469729,0.1400000005960464
4.091956860334891,-0.042943999171257,-0.9911279678344728,-0.085156001150608,-3.132499933242798,-0.9800000190734864,0.0350000001490116
4.112114283292206,-0.0402599982917308,-0.9964959621429444,-0.0936959981918335,-3.377500057220459,-0.4200000166893005,-0.2450000047683715
4.1322717062495204,-0.0387960001826286,-0.9950319528579712,-0.0971119999885559,-2.922499895095825,0.4375,-0.4025000035762787
4.152429129206835,-0.0402599982917308,-0.9928359985351562,-0.0971119999885559,-2.6424999237060547,1.4350000619888306,-0.2100000083446502
4.17258655216415,-0.0453839972615242,-0.9911279678344728,-0.0966240018606185,-2.8350000381469727,2.0299999713897705,-0.0350000001490116
4.192743975121465,-0.0480679981410503,-0.9964959621429444,-0.0997959971427917,-2.414999961853028,2.5899999141693115,0.1574999988079071
4.212901398078779,-0.0539239980280399,-1.0011320114135742,-0.1017479971051216,-1.9774999618530276,2.6075000762939453,0.2975000143051147
4.233058821036094,-0.0570959970355033,-0.9989359974861144,-0.1017479971051216,-1.627500057220459,2.992500066757202,-0.0350000001490116
4.253216243993409,-0.0619760006666183,-0.9979599714279176,-0.0971119999885559,-1.347499966621399,3.132499933242798,-0.5600000023841858
4.273373666950723,-0.0614879988133907,-0.9935680031776428,-0.1022359952330589,-0.9975000023841858,2.5374999046325684,-0.9275000095367432
4.293531089908038,-0.0605119988322258,-0.9923479557037354,-0.0973559990525245,-0.8924999833106995,1.9424999952316284,-0.7699999809265137
4.313688512865353,-0.0568519979715347,-0.9964959621429444,-0.0985759943723678,-0.962499976158142,1.2424999475479126,-0.5600000023841858
4.3338459358226675,-0.052947998046875,-0.994055986404419,-0.1054079979658126,-0.4375,0.6650000214576721,-0.5950000286102295
4.354003358779982,-0.0487999990582466,-0.9969840049743652,-0.1071159988641738,-0.2275000065565109,0.699999988079071,-0.5249999761581421
4.374160781737297,-0.0461159981787204,-0.9979599714279176,-0.105163998901844,0.0175000000745058,1.1725000143051147,-0.6825000047683716
4.394318204694612,-0.0446520000696182,-0.9957639575004578,-0.1036999970674514,0.4724999964237213,1.4700000286102295,-0.9975000023841858
4.414475627651926,-0.0483120009303092,-0.9928359985351562,-0.1029679998755455,0.7699999809265137,1.662500023841858,-1.1549999713897705
4.434633050609241,-0.0539239980280399,-0.9933239817619324,-0.1034559980034828,0.612500011920929,1.7324999570846558,-1.0325000286102295
4.454790473566556,-0.0568519979715347,-0.9911279678344728,-0.1007720008492469,0.5249999761581421,1.5399999618530271,-0.7699999809265137
4.4749478965238705,-0.0541680008172988,-0.9925919771194458,-0.1007720008492469,0.2450000047683715,1.4175000190734863,-0.5425000190734863
4.495105319481185,-0.0527039989829063,-0.9925919771194458,-0.0980879962444305,0.1749999970197677,1.3650000095367432,-0.2450000047683715
4.5152627424385,-0.0527039989829063,-0.9960079789161682,-0.0975999981164932,0.0874999985098838,1.0325000286102295,-0.1749999970197677
4.535420165395815,-0.057583998888731,-0.994055986404419,-0.0954039990901947,0.2275000065565109,0.5774999856948853,-0.4550000131130218
4.555577588353129,-0.0585599988698959,-0.995519995689392,-0.095160000026226,0.262499988079071,-0.1924999952316284,-0.7875000238418579
4.575735011310444,-0.0561200007796287,-0.9952759742736816,-0.0963799953460693,0.6299999952316284,-0.8224999904632568,-0.962499976158142
4.595892434267759,-0.0558759979903698,-0.9913719892501832,-0.0939399972558021,1.0850000381469729,-1.3125,-1.0674999952316284
4.616049857225073,-0.0534359999001026,-0.9911279678344728,-0.0924759954214096,0.9449999928474426,-1.7324999570846558,-0.9800000190734864
4.636207280182388,-0.0478239990770816,-0.9921039938926696,-0.0890600010752677,0.5950000286102295,-2.309999942779541,-0.8224999904632568
4.656364703139703,-0.0448959991335868,-0.9896639585494996,-0.0914999991655349,0.4724999964237213,-2.7300000190734863,-0.7699999809265137
4.676522126097018,-0.0468479990959167,-0.9916160106658936,-0.0927200019359588,0.0874999985098838,-3.009999990463257,-0.5249999761581421
4.696679549054332,-0.0385520011186599,-0.9891759753227234,-0.0963799953460693,-0.1400000005960464,-2.887500047683716,-0.2100000083446502
4.716836972011647,-0.0463600009679794,-0.995519995689392,-0.1007720008492469,-0.4375,-2.1700000762939453,0.1924999952316284
4.736994394968962,-0.0204959996044635,-0.9952759742736816,-0.0929640009999275,-0.1749999970197677,-0.9800000190734864,0.6474999785423279
4.757151817926276,-0.0366000011563301,-0.9886879920959472,-0.0990639999508857,0.0874999985098838,-0.962499976158142,-0.4375
4.777309240883591,-0.0397720001637935,-0.9933239817619324,-0.0973559990525245,-0.3499999940395355,-0.8400000333786011,-0.8400000333786011
4.797466663840906,-0.042943999171257,-0.9921039938926696,-0.0961359962821006,-0.332500010728836,-0.5600000023841858,-0.9449999928474426
4.8176240867982205,-0.0470919981598854,-0.9925919771194458,-0.0956479981541633,-0.3149999976158142,-0.7699999809265137,-0.8050000071525574
4.837781509755535,-0.0483120009303092,-0.9911279678344728,-0.0919879972934722,-0.2275000065565109,-0.8924999833106995,-0.612500011920929
4.85793893271285,-0.0505079999566078,-0.9901520013809204,-0.0912560001015663,-0.4025000035762787,-1.2599999904632568,-0.4375
4.878096355670165,-0.0500199981033802,-0.9928359985351562,-0.095160000026226,-0.6825000047683716,-1.662500023841858,-0.2275000065565109
4.898253778627479,-0.0448959991335868,-0.9918599724769592,-0.0932080000638961,-0.8400000333786011,-1.715000033378601,-0.0700000002980232
4.918411201584794,-0.0448959991335868,-0.990884006023407,-0.0954039990901947,-0.875,-1.837499976158142,-0.1749999970197677
4.938568624542109,-0.0409919992089271,-0.9891759753227234,-0.0975999981164932,-0.9449999928474426,-1.837499976158142,-0.3149999976158142
4.9587260474994235,-0.0402599982917308,-0.9913719892501832,-0.0971119999885559,-1.2599999904632568,-1.9424999952316284,-0.4025000035762787
4.978883470456738,-0.0431879982352256,-0.9916160106658936,-0.0944279953837394,-1.3300000429153442,-1.8025000095367432,-0.4550000131130218
4.999040893414053,-0.0456280000507831,-0.9877119660377502,-0.0946719944477081,-1.1725000143051147,-1.8550000190734863,-0.4724999964237213
5.019198316371368,-0.0468479990959167,-0.9830759763717652,-0.0966240018606185,-1.4350000619888306,-2.0999999046325684,-0.3499999940395355
5.039355739328682,-0.0497759990394115,-0.9847840070724488,-0.0980879962444305,-2.1524999141693115,-2.3975000381469727,-0.2800000011920929
5.059513162285997,-0.0500199981033802,-0.9886879920959472,-0.1015039980411529,-2.799999952316284,-2.747499942779541,-0.2100000083446502
5.079670585243312,-0.0512399971485137,-0.9943000078201294,-0.1034559980034828,-3.0274999141693115,-3.1675000190734863,-0.0874999985098838
5.099828008200626,-0.0544119998812675,-0.9979599714279176,-0.1093119978904724,-2.922499895095825,-3.5,0.0700000002980232
5.119985431157941,-0.0517279990017414,-1.000643968582153,-0.1061399951577186,-2.765000104904175,-3.622499942779541,0.5249999761581421
5.140142854115256,-0.047335997223854,-0.9994239807128906,-0.1093119978904724,-2.2049999237060547,-3.447499990463257,0.6825000047683716
5.1603002770725706,-0.0431879982352256,-0.994055986404419,-0.1141919940710067,-1.5225000381469729,-2.9049999713897705,0.6825000047683716
5.180457700029885,-0.0363559983670711,-0.9943000078201294,-0.1158999949693679,-1.4700000286102295,-2.3975000381469727,0.5950000286102295
5.2006151229872,-0.0370879992842674,-0.9974719882011414,-0.1132159978151321,-1.4350000619888306,-1.784999966621399,0.3499999940395355
5.220772545944515,-0.0395279973745346,-0.9974719882011414,-0.1097999960184097,-1.0499999523162842,-1.3125,0.0525000020861625
5.240929968901829,-0.0431879982352256,-0.9916160106658936,-0.1115079969167709,-0.3675000071525574,-0.0700000002980232,-0.0525000020861625
5.261087391859144,-0.0444080010056495,-0.9943000078201294,-0.1066280007362365,-0.2975000143051147,0.1924999952316284,-0.0874999985098838
5.281244814816459,-0.0456280000507831,-0.9923479557037354,-0.1046760007739067,-0.1574999988079071,0.1574999988079071,-0.1924999952316284
5.3014022377737735,-0.0463600009679794,-0.9947879910469056,-0.1054079979658126,-0.2100000083446502,-0.0175000000745058,-0.262499988079071
5.321559660731088,-0.047335997223854,-0.994055986404419,-0.1076039969921112,0.0350000001490116,-0.2450000047683715,-0.3675000071525574
5.341717083688403,-0.0441639982163906,-0.990395963191986,-0.1090679988265037,0.3499999940395355,-0.3499999940395355,-0.4724999964237213
5.361874506645718,-0.0434319972991943,-0.9896639585494996,-0.1097999960184097,0.1749999970197677,-0.3499999940395355,-0.4375
5.382031929603032,-0.0431879982352256,-0.9950319528579712,-0.1137039959430694,-0.1400000005960464,-0.2100000083446502,-0.2975000143051147
5.402189352560347,-0.0456280000507831,-0.9964959621429444,-0.1161440014839172,-0.0175000000745058,-0.1400000005960464,-0.3849999904632568
5.422346775517662,-0.0448959991335868,-0.9960079789161682,-0.1122400015592575,0.1225000023841857,-0.3849999904632568,-0.5425000190734863
5.4425041984749765,-0.0468479990959167,-0.9913719892501832,-0.1112639978528022,0.6474999785423279,-0.3849999904632568,-0.6650000214576721
5.462661621432291,-0.0490439981222152,-0.9896639585494996,-0.1117519959807396,0.9100000262260436,-0.332500010728836,-0.612500011920929
5.482819044389606,-0.0490439981222152,-0.9913719892501832,-0.109555996954441,0.875,-0.1574999988079071,-0.4550000131130218
5.502976467346921,-0.0507519990205764,-0.9925919771194458,-0.1093119978904724,0.6474999785423279,0.1574999988079071,-0.1225000023841857
5.523133890304235,-0.0495319999754428,-0.9906399846076964,-0.1097999960184097,0.6650000214576721,0.262499988079071,-0.1574999988079071
5.54329131326155,-0.0505079999566078,-0.9913719892501832,-0.1122400015592575,0.612500011920929,0.0700000002980232,-0.332500010728836
5.563448736218865,-0.0485559999942779,-0.9933239817619324,-0.1105320006608963,0.5950000286102295,-0.0700000002980232,-0.332500010728836
5.583606159176179,-0.0470919981598854,-0.9925919771194458,-0.1105320006608963,0.7350000143051147,-0.0525000020861625,-0.3675000071525574
5.603763582133494,-0.0439199991524219,-0.9933239817619324,-0.1122400015592575,0.7875000238418579,-0.0525000020861625,-0.4550000131130218
5.623921005090809,-0.0414799973368644,-0.9947879910469056,-0.1088239997625351,0.6650000214576721,0.0525000020861625,-0.4375
5.6440784280481235,-0.0409919992089271,-0.9950319528579712,-0.1078479960560798,0.7350000143051147,0.1050000041723251,-0.5425000190734863
5.664235851005438,-0.0453839972615242,-0.9916160106658936,-0.105163998901844,0.9449999928474426,-0.0350000001490116,-0.6650000214576721
5.684393273962753,-0.0505079999566078,-0.9828319549560548,-0.1024799942970275,1.1200000047683716,-0.0350000001490116,-0.6299999952316284
5.704550696920068,-0.0507519990205764,-0.9845399856567384,-0.1022359952330589,0.5074999928474426,-0.3675000071525574,-0.4550000131130218
5.724708119877382,-0.047335997223854,-0.990884006023407,-0.1036999970674514,-0.1050000041723251,-0.4550000131130218,-0.0525000020861625
5.744865542834697,-0.0417240001261234,-0.990884006023407,-0.104432001709938,-0.1574999988079071,-0.2975000143051147,0.1400000005960464
5.765022965792012,-0.0407480001449584,-0.9918599724769592,-0.10589599609375,-0.332500010728836,-0.1050000041723251,0.0350000001490116
5.7851803887493265,-0.0422119982540607,-0.9938119649887084,-0.1097999960184097,-0.3499999940395355,0.262499988079071,0.0175000000745058
5.805337811706641,-0.0458719991147518,-0.9947879910469056,-0.1129719987511634,-0.1400000005960464,0.612500011920929,0.0350000001490116
5.825495234663956,-0.047335997223854,-0.9925919771194458,-0.1083360016345977,0.0350000001490116,0.5600000023841858,-0.2275000065565109
5.845652657621271,-0.0495319999754428,-0.990884006023407,-0.1090679988265037,0.1749999970197677,0.2975000143051147,-0.262499988079071
5.865810080578585,-0.0507519990205764,-0.993079960346222,-0.10589599609375,-0.0874999985098838,-0.332500010728836,-0.0700000002980232
5.8859675035359,-0.042943999171257,-0.9896639585494996,-0.10589599609375,0.1225000023841857,-0.0350000001490116,0.0525000020861625
5.906124926493215,-0.0444080010056495,-0.9901520013809204,-0.1073599979281425,0.0874999985098838,0.3499999940395355,-0.0350000001490116
5.9262823494505295,-0.0448959991335868,-0.9935680031776428,-0.1049199998378753,-0.0525000020861625,0.8050000071525574,-0.0525000020861625
5.946439772407844,-0.0490439981222152,-0.98990797996521,-0.1034559980034828,-0.1050000041723251,0.7524999976158142,-0.2450000047683715
5.966597195365159,-0.0534359999001026,-0.9921039938926696,-0.1039439961314201,-0.1749999970197677,0.332500010728836,-0.1749999970197677
5.986754618322474,-0.0441639982163906,-0.9972279667854308,-0.1078479960560798,0.1050000041723251,-0.0525000020861625,0.0874999985098838
6.006912041279788,-0.0444080010056495,-0.9945439696311952,-0.1078479960560798,0.7350000143051147,-0.0874999985098838,-0.1225000023841857
6.027069464237103,-0.0446520000696182,-0.9989359974861144,-0.1019919961690902,0.7699999809265137,-0.1574999988079071,-0.1924999952316284
6.047226887194418,-0.0497759990394115,-0.9962520003318788,-0.104432001709938,1.0499999523162842,-0.1574999988079071,-0.4200000166893005
6.067384310151732,-0.0495319999754428,-0.9974719882011414,-0.1119959950447082,1.4524999856948853,0.262499988079071,-0.6299999952316284
6.087541733109047,-0.0478239990770816,-0.990884006023407,-0.1146799996495246,2.2925000190734863,1.6449999809265137,-0.9275000095367432
6.107699156066362,-0.0319640003144741,-0.9823439717292786,-0.1061399951577186,2.0824999809265137,3.0625,-0.4200000166893005
6.1278565790236765,-0.0326960012316703,-0.9801479578018188,-0.1039439961314201,0.962499976158142,3.815000057220459,0.262499988079071
6.148014001980991,-0.0375759974122047,-0.9860039949417114,-0.1173639968037605,-0.6474999785423279,3.3424999713897705,0.7175000309944153
6.168171424938306,-0.0461159981787204,-0.9957639575004578,-0.1207799986004829,-1.2424999475479126,2.502500057220459,0.8224999904632568
6.188328847895621,-0.0507519990205764,-0.9999119639396667,-0.1381039917469024,-0.8924999833106995,1.225000023841858,0.1225000023841857
6.208486270852935,-0.0592919997870922,-1.0016199350357056,-0.140299990773201,0.7875000238418579,0.5600000023841858,-1.0325000286102295
6.22864369381025,-0.062219999730587,-0.9847840070724488,-0.1307840049266815,2.327500104904175,1.0850000381469729,-2.0824999809265137
6.248801116767565,-0.0524599999189376,-0.9694119691848756,-0.1015039980411529,1.784999966621399,1.4874999523162842,-1.6974999904632568
6.2689585397248795,-0.0395279973745346,-0.9740479588508606,-0.0893040001392364,-0.5600000023841858,1.225000023841858,-0.332500010728836
6.289115962682194,-0.0324519984424114,-0.97843998670578,-0.0897919982671737,-2.6075000762939453,0.5950000286102295,1.0499999523162842
6.309273385639509,-0.0285479985177516,-0.9835639595985411,-0.0939399972558021,-4.182499885559082,0.2800000011920929,1.784999966621399
6.329430808596824,-0.0334279984235763,-0.9933239817619324,-0.0934519991278648,-4.795000076293945,0.2450000047683715,1.6974999904632568
6.349588231554138,-0.0402599982917308,-1.0067440271377563,-0.0993079990148544,-3.954999923706055,0.5425000190734863,1.2599999904632568
6.369745654511453,-0.041967999190092,-1.0116239786148071,-0.1017479971051216,-2.0824999809265137,0.612500011920929,0.5774999856948853
6.389903077468768,-0.0400159992277622,-1.0128439664840698,-0.1088239997625351,1.0325000286102295,1.1024999618530271,-0.9100000262260436
6.410060500426082,-0.047580000013113,-1.0047919750213623,-0.1166319996118545,2.257499933242798,1.0499999523162842,-1.3300000429153442
6.430217923383397,-0.056607998907566,-0.9974719882011414,-0.1193159967660904,2.5899999141693115,0.4550000131130218,-1.399999976158142
6.450375346340712,-0.0639280006289482,-0.98990797996521,-0.1183400005102157,3.2725000381469727,-0.1574999988079071,-1.4350000619888306
6.470532769298027,-0.071492001414299,-0.986735999584198,-0.1183400005102157,3.4124999046325684,-0.9800000190734864,-1.5399999618530271
6.490690192255341,-0.0678320005536079,-0.9769759774208068,-0.1107759997248649,3.220000028610229,-1.5399999618530271,-1.3825000524520874
6.510847615212656,-0.057583998888731,-0.970143973827362,-0.0968680009245872,2.0999999046325684,-2.047499895095825,-0.9275000095367432
6.531005038169971,-0.0487999990582466,-0.9755119681358336,-0.0966240018606185,0.6474999785423279,-2.5199999809265137,-0.1050000041723251
6.551162461127285,-0.042943999171257,-0.9828319549560548,-0.1036999970674514,-0.7524999976158142,-2.625,0.612500011920929
6.5713198840846,-0.0392839983105659,-0.9889319539070128,-0.1046760007739067,-2.134999990463257,-2.677500009536743,0.7350000143051147
6.591477307041915,-0.0370879992842674,-0.998203992843628,-0.109555996954441,-2.327500104904175,-2.4674999713897705,0.4724999964237213
6.6116347299992295,-0.0390399992465972,-1.001863956451416,-0.1129719987511634,-1.4524999856948853,-1.9424999952316284,0.1574999988079071
6.631792152956544,-0.0402599982917308,-1.0082080364227295,-0.1115079969167709,-0.4900000095367431,-1.3825000524520874,-0.0874999985098838
6.651949575913859,-0.0434319972991943,-1.0072319507598877,-0.1100439950823783,0.5425000190734863,-0.9449999928474426,-0.4200000166893005
6.672106998871174,-0.0453839972615242,-1.0057679414749146,-0.1110199987888336,1.4524999856948853,-0.6825000047683716,-0.7524999976158142
6.692264421828488,-0.0487999990582466,-1.0008879899978638,-0.1119959950447082,2.450000047683716,-0.5249999761581421,-0.9100000262260436
6.712421844785803,-0.0551439970731735,-0.9962520003318788,-0.1122400015592575,3.202500104904175,-0.4724999964237213,-0.9975000023841858
6.732579267743118,-0.05197199806571,-0.9911279678344728,-0.1056519970297813,3.377500057220459,-0.4550000131130218,-0.8400000333786011
6.7527366907004325,-0.052947998046875,-0.9891759753227234,-0.1027240008115768,3.2725000381469727,-0.6650000214576721,-0.7875000238418579
6.772894113657747,-0.0531919971108436,-0.9874680042266846,-0.1041879951953888,2.940000057220459,-0.9800000190734864,-0.8224999904632568
6.793051536615062,-0.0500199981033802,-0.981123983860016,-0.1022359952330589,2.362499952316284,-1.0674999952316284,-0.699999988079071
6.813208959572377,-0.0444080010056495,-0.9757559895515442,-0.1019919961690902,1.5049999952316284,-0.8924999833106995,-0.2975000143051147
6.833366382529691,-0.041967999190092,-0.9781959652900696,-0.1034559980034828,0.3675000071525574,-0.7350000143051147,0.1400000005960464
6.853523805487006,-0.0402599982917308,-0.9847840070724488,-0.1088239997625351,-0.5074999928474426,-0.3675000071525574,0.4375
6.873681228444321,-0.0397720001637935,-0.990395963191986,-0.1107759997248649,-1.2949999570846558,0.2275000065565109,0.5074999928474426
6.893838651401635,-0.0453839972615242,-0.9967399835586548,-0.1124840006232261,-1.5049999952316284,0.4900000095367431,0.3499999940395355
6.91399607435895,-0.0480679981410503,-1.000643968582153,-0.1117519959807396,-1.1200000047683716,0.6474999785423279,0.2275000065565109
6.934153497316265,-0.0461159981787204,-0.9984479546546936,-0.1097999960184097,-0.7350000143051147,0.7699999809265137,0.1225000023841857
6.9543109202735796,-0.0470919981598854,-0.9979599714279176,-0.10589599609375,-0.2450000047683715,0.7524999976158142,0.0350000001490116
6.974468343230894,-0.0492879971861839,-0.9950319528579712,-0.1029679998755455,0.2100000083446502,0.4900000095367431,-0.0525000020861625
6.994625766188209,-0.0448959991335868,-0.9957639575004578,-0.0983319953083992,0.332500010728836,0.2975000143051147,0.4900000095367431
7.014783189145524,-0.0390399992465972,-0.9860039949417114,-0.0978439971804618,0.8575000166893005,0.3849999904632568,0.2450000047683715
7.034940612102838,-0.0409919992089271,-0.9864919781684875,-0.0978439971804618,0.6650000214576721,0.1400000005960464,-0.1749999970197677
7.055098035060153,-0.0434319972991943,-0.9901520013809204,-0.0966240018606185,0.2800000011920929,0.1574999988079071,-0.2450000047683715
7.075255458017468,-0.0378200002014637,-0.9996680021286012,-0.095160000026226,0.4900000095367431,0.0874999985098838,-0.2800000011920929
7.0954128809747825,-0.0295239984989166,-1.0016199350357056,-0.0968680009245872,1.2599999904632568,1.1549999713897705,-0.3675000071525574
7.115570303932097,-0.0241560004651546,-0.990884006023407,-0.0907679945230484,1.7675000429153442,2.1700000762939453,-0.5425000190734863
7.135727726889412,-0.0239119995385408,-0.9923479557037354,-0.0961359962821006,1.2074999809265137,2.817500114440918,-0.612500011920929
7.155885149846727,-0.0261080004274845,-0.9938119649887084,-0.0946719944477081,0.612500011920929,3.220000028610229,-0.5950000286102295
7.176042572804041,-0.0390399992465972,-1.0082080364227295,-0.1183400005102157,0.1924999952316284,2.712500095367432,-0.3149999976158142
7.196199995761356,-0.0563639998435974,-1.0069879293441772,-0.1332239955663681,1.5575000047683716,1.6974999904632568,-0.2800000011920929
7.216357418718671,-0.0727119967341423,-1.013819932937622,-0.1520119905471801,2.694999933242798,-0.4724999964237213,-0.9449999928474426
7.2365148416759855,-0.0895479992032051,-1.02675199508667,-0.1837320029735565,5.897500038146973,-2.5199999809265137,-2.345000028610229
7.2566722646333,-0.085887998342514,-0.9879559874534608,-0.1942239999771118,10.517499923706056,-1.4700000286102295,-3.990000009536743
7.276829687590615,-0.047335997223854,-0.9140239953994752,-0.1122400015592575,10.587499618530272,2.345000028610229,-3.377500057220459
7.29698711054793,-0.0139079997316002,-0.901579976081848,-0.0480679981410503,2.5199999809265137,3.815000057220459,-0.4375
7.317144533505244,-0.0087839998304843,-0.920367956161499,-0.0353799983859062,-6.737500190734863,3.184999942779541,3.4649999141693115
7.337301956462559,-0.013663999736309,-0.9513559937477112,-0.0595359988510608,-15.732500076293944,2.694999933242798,7.157500267028809
7.357459379419874,-0.0207399986684322,-1.0172359943389893,-0.0936959981918335,-20.825000762939453,3.0274999141693115,9.362500190734863
7.377616802377188,-0.0014639999717473,-1.059448003768921,-0.1234639957547187,-17.02750015258789,5.565000057220459,9.170000076293944
7.397774225334503,0.0231800004839897,-1.073599934577942,-0.1446920037269592,-9.239999771118164,9.7475004196167,7.034999847412109
7.417931648291818,0.0490439981222152,-1.0731120109558103,-0.1500599980354309,-0.9449999928474426,15.855000495910645,3.867500066757202
7.4380890712491325,0.0553879998624324,-1.0540800094604492,-0.1339560002088546,7.157500267028809,22.69750022888184,-0.2275000065565109
7.458246494206447,0.0434319972991943,-1.036512017250061,-0.1141919940710067,12.5649995803833,28.45499992370605,-4.480000019073486
7.478403917163762,-0.0004879999905824,-0.9996680021286012,-0.0834480002522468,15.662500381469728,32.11249923706055,-7.4375
7.498561340121077,-0.0534359999001026,-0.9996680021286012,-0.0863759964704513,15.470000267028809,32.217498779296875,-7.804999828338623
7.518718763078391,-0.1036999970674514,-1.001376032829285,-0.0919879972934722,15.522500038146973,29.924999237060547,-6.212500095367432
7.538876186035706,-0.1456679999828338,-0.9789279699325562,-0.0944279953837394,16.082500457763672,24.90250015258789,-5.057499885559082
7.559033608993021,-0.1703120023012161,-0.9591639637947084,-0.0985759943723678,15.399999618530272,18.95249938964844,-4.987500190734863
7.5791910319503355,-0.157379999756813,-0.9484279751777648,-0.0468479990959167,9.835000038146973,6.440000057220459,-3.220000028610229
7.59934845490765,-0.1498159915208816,-0.9313479661941528,-0.0231800004839897,5.477499961853027,-0.4025000035762787,0.1924999952316284
7.619505877864965,-0.1341999918222427,-0.9533079862594604,-0.0326960012316703,-2.0824999809265137,-8.837499618530273,4.252500057220459
7.63966330082228,-0.1063839942216873,-0.9594079852104188,-0.0534359999001026,-6.159999847412109,-15.627500534057615,5.704999923706055
7.659820723779594,-0.0956479981541633,-0.9845399856567384,-0.0822279974818229,-8.890000343322754,-22.3125,3.797500133514404
7.679978146736909,-0.0788119956851005,-1.014796018600464,-0.0971119999885559,-7.804999828338623,-27.037500381469727,1.3300000429153442
7.700135569694224,-0.0609999969601631,-1.0187000036239624,-0.0985759943723678,-3.552500009536743,-30.8700008392334,-1.4524999856948853
7.7202929926515385,-0.0397720001637935,-1.012355923652649,-0.0949160009622573,-0.8224999904632568,-32.74250030517578,-2.852499961853028
7.740450415608853,-0.0185439996421337,-1.017967939376831,-0.0985759943723678,0.9449999928474426,-32.67250061035156,-3.0975000858306885
7.760607838566168,0.0112239997833967,-1.016260027885437,-0.1054079979658126,2.677500009536743,-30.78249931335449,-2.694999933242798
7.780765261523483,0.0390399992465972,-1.0182119607925415,-0.1183400005102157,3.289999961853028,-27.26499938964844,-1.9075000286102293
7.800922684480797,0.0573399998247623,-1.0201640129089355,-0.1339560002088546,4.427500247955322,-21.2450008392334,-0.7175000309944153
7.821080107438112,0.0578279979526996,-1.0145519971847534,-0.1332239955663681,5.565000057220459,-14.489999771118164,0.1749999970197677
7.841237530395427,0.0231800004839897,-0.990884006023407,-0.1239520013332367,7.105000019073486,-8.085000038146973,0.0525000020861625
7.861394953352741,-0.0258639995008707,-0.9835639595985411,-0.1115079969167709,6.037499904632568,-2.747499942779541,-0.5950000286102295
7.881552376310056,-0.062219999730587,-0.9747799634933472,-0.0797879993915557,5.284999847412109,-1.3125,-1.1725000143051147
7.901709799267371,-0.0927200019359588,-0.9559919834136964,-0.0819839984178543,4.09499979019165,-2.1700000762939453,-0.9100000262260436
7.9218672222246855,-0.0868639945983886,-0.974291980266571,-0.0924759954214096,0.3849999904632568,-2.0824999809265137,0.5950000286102295
7.942024645182,-0.0509959980845451,-0.9677039980888368,-0.0963799953460693,-1.0499999523162842,-1.4874999523162842,1.8200000524520876
7.962182068139315,-0.0180559996515512,-0.9535520076751708,-0.0863759964704513,-3.552500009536743,-0.4200000166893005,2.747499942779541
7.98233949109663,-0.013663999736309,-0.9608719944953918,-0.0810080021619796,-6.84250020980835,1.5049999952316284,3.8324999809265137
8.002496914053944,-0.0192760005593299,-0.9723399877548218,-0.0756400004029274,-10.045000076293944,2.799999952316284,4.497499942779541
8.022654337011259,-0.0319640003144741,-0.993079960346222,-0.0712479948997497,-12.6875,3.587500095367432,4.777500152587891
8.042811759968574,-0.0380639992654323,-1.0125999450683594,-0.0810080021619796,-12.61750030517578,4.672500133514404,4.21750020980835
8.062969182925888,-0.0431879982352256,-1.0233359336853027,-0.0810080021619796,-10.90250015258789,6.054999828338623,2.852499961853028
8.083126605883203,-0.0480679981410503,-1.0333399772644043,-0.0749079957604408,-7.664999961853027,6.877500057220459,1.8200000524520876
8.103284028840518,-0.057583998888731,-1.0274839401245115,-0.0692960023880004,-3.255000114440918,6.579999923706055,0.5600000023841858
8.123441451797833,-0.0795440003275871,-1.012355923652649,-0.0531919971108436,-0.1924999952316284,5.110000133514404,-0.2975000143051147
8.143598874755147,-0.1105320006608963,-1.0040600299835205,-0.0324519984424114,1.2949999570846558,2.065000057220459,-0.8924999833106995
8.163756297712462,-0.140299990773201,-0.9891759753227234,-0.0187879987061023,1.3825000524520874,-2.887500047683716,-1.1725000143051147
8.183913720669777,-0.1249279975891113,-0.9911279678344728,-0.0261080004274845,-0.0874999985098838,-15.190000534057615,0.2100000083446502
8.204071143627091,-0.0934519991278648,-1.0062559843063354,-0.0534359999001026,0.0350000001490116,-20.020000457763672,1.277500033378601
8.224228566584406,-0.0678320005536079,-1.0104039907455444,-0.0802759975194931,0.4375,-22.38249969482422,1.75
8.24438598954172,-0.0405040010809898,-1.015771985054016,-0.1039439961314201,1.3650000095367432,-24.43000030517578,1.6100000143051147
8.264543412499036,-0.0168359987437725,-1.0091840028762815,-0.1393239945173263,4.742499828338623,-24.3075008392334,0.7875000238418579
8.28470083545635,-0.0034159999340772,-0.985759973526001,-0.147376000881195,7.71750020980835,-21.350000381469727,-0.8224999904632568
8.304858258413665,0.0085399998351931,-0.9311040043830872,-0.1166319996118545,7.559999942779541,-15.557499885559082,-1.9600000381469729
8.32501568137098,0.0309880003333091,-0.9276880025863647,-0.0871080011129379,1.0674999952316284,-10.56999969482422,-0.5950000286102295
8.345173104328294,0.0358680002391338,-0.9547719955444336,-0.0741759985685348,-4.514999866485596,-5.914999961853027,1.7324999570846558
8.365330527285609,0.0100039998069405,-0.958187997341156,-0.0812520012259483,-9.9399995803833,-2.275000095367432,3.692500114440918
8.385487950242924,-0.0107359997928142,-0.9943000078201294,-0.090279996395111,-14.524999618530272,0.2975000143051147,4.760000228881836
8.405645373200239,-0.0180559996515512,-1.0245559215545654,-0.0963799953460693,-13.614999771118164,3.237499952316284,4.164999961853027
8.425802796157553,-0.0246439985930919,-1.032364010810852,-0.100283995270729,-9.397500038146973,6.510000228881836,2.6600000858306885
8.445960219114868,-0.0287919994443655,-1.0306559801101685,-0.0988200008869171,-5.355000019073486,9.432499885559082,1.1375000476837158
8.466117642072183,-0.0214719995856285,-1.0306559801101685,-0.0990639999508857,-2.240000009536743,11.4975004196167,-0.1050000041723251
8.486275065029497,-0.0185439996421337,-1.0155279636383057,-0.1049199998378753,0.8400000333786011,13.824999809265137,-0.8575000166893005
8.506432487986812,-0.0239119995385408,-1.007475972175598,-0.1227319985628128,2.327500104904175,16.11750030517578,-1.4350000619888306
8.526589910944127,-0.0378200002014637,-1.000643968582153,-0.1393239945173263,3.3949999809265137,17.7450008392334,-2.362499952316284
8.546747333901441,-0.0570959970355033,-0.9952759742736816,-0.1549399942159652,4.480000019073486,19.02250099182129,-3.4825000762939453
8.566904756858756,-0.0683199986815452,-0.9806360006332396,-0.1525000035762787,5.302500247955322,20.684999465942383,-4.112500190734863
8.587062179816071,-0.0636840015649795,-0.9640439748764038,-0.1290760040283203,4.619999885559082,22.17250061035156,-3.6050000190734863
8.607219602773386,-0.0527039989829063,-0.9608719944953918,-0.1071159988641738,2.309999942779541,23.065000534057617,-1.7675000429153442
8.6273770257307,-0.0451399981975555,-0.965507984161377,-0.100283995270729,-1.1375000476837158,23.22249984741211,0.262499988079071
8.647534448688015,-0.042943999171257,-0.9803919792175292,-0.1097999960184097,-4.392499923706055,23.25749969482422,1.6449999809265137
8.66769187164533,-0.0468479990959167,-0.9938119649887084,-0.1259039938449859,-6.019999980926514,23.20499992370605,1.9075000286102293
8.687849294602644,-0.0502640008926391,-1.006500005722046,-0.1322479993104934,-4.865000247955322,23.467500686645508,1.5225000381469729
8.70800671755996,-0.0548999980092048,-1.0003999471664429,-0.1237079948186874,-2.327500104904175,23.78249931335449,0.7875000238418579
8.728164140517274,-0.0541680008172988,-1.0086959600448608,-0.1110199987888336,-1.2949999570846558,22.5575008392334,-0.4025000035762787
8.748321563474589,-0.0609999969601631,-1.0025960206985474,-0.1068719998002052,-0.5074999928474426,21.57749938964844,-1.1725000143051147
8.768478986431903,-0.0717360004782676,-1.0238239765167236,-0.0890600010752677,-0.7699999809265137,19.89750099182129,-1.8550000190734863
8.788636409389218,-0.0600240007042884,-0.9501360058784484,-0.0963799953460693,4.287499904632568,17.46500015258789,-2.677500009536743
8.808793832346533,-0.0580720007419586,-0.9667279720306396,-0.1019919961690902,0.2450000047683715,16.047500610351562,-2.450000047683716
8.828951255303847,-0.0641719996929168,-0.9674599766731262,-0.0993079990148544,-1.5575000047683716,14.822500228881836,-1.8025000095367432
8.849108678261162,-0.0702719986438751,-0.9877119660377502,-0.0893040001392364,-3.954999923706055,12.932499885559082,-0.4200000166893005
8.869266101218477,-0.0678320005536079,-0.973315954208374,-0.0854000002145767,-4.375,10.5,0.6299999952316284
8.889423524175792,-0.0734440013766288,-0.9967399835586548,-0.0834480002522468,-6.84250020980835,7.909999847412109,1.5575000047683716
8.909580947133106,-0.0732000023126602,-1.0016199350357056,-0.0883279964327812,-6.527500152587891,5.442500114440918,1.2424999475479126
8.929738370090421,-0.0580720007419586,-0.9996680021286012,-0.0980879962444305,-5.477499961853027,3.377500057220459,1.0149999856948853
8.949895793047736,-0.052216000854969,-0.9901520013809204,-0.1012599989771843,-4.445000171661377,2.1700000762939453,0.875
8.97005321600505,-0.0456280000507831,-0.9894199967384338,-0.095891997218132,-4.514999866485596,1.4524999856948853,1.0325000286102295
8.990210638962365,-0.0441639982163906,-0.9842959642410278,-0.0956479981541633,-4.672500133514404,0.7524999976158142,1.0674999952316284
9.01036806191968,-0.0424560010433197,-0.9745360016822816,-0.1012599989771843,-5.179999828338623,-0.0525000020861625,1.1725000143051147
9.030525484876994,-0.0463600009679794,-0.9708759784698486,-0.0980879962444305,-6.317500114440918,-0.9275000095367432,1.6449999809265137
9.05068290783431,-0.0480679981410503,-0.9813680052757264,-0.104432001709938,-7.595000267028809,-2.012500047683716,2.327500104904175
9.070840330791624,-0.0456280000507831,-0.9928359985351562,-0.1115079969167709,-7.909999847412109,-3.202500104904175,2.747499942779541
9.090997753748939,-0.0448959991335868,-0.998203992843628,-0.1215119957923889,-7.71750020980835,-3.954999923706055,2.940000057220459
9.111155176706253,-0.0412359982728958,-1.001376032829285,-0.1315159946680069,-7.262499809265137,-4.340000152587891,3.289999961853028
9.131312599663568,-0.0405040010809898,-0.9918599724769592,-0.1317600011825561,-6.40500020980835,-4.357500076293945,3.307500123977661
9.151470022620883,-0.0392839983105659,-0.9891759753227234,-0.1307840049266815,-6.264999866485596,-4.09499979019165,3.0975000858306885
9.171627445578197,-0.0344039984047412,-0.9860039949417114,-0.1324919909238815,-6.019999980926514,-3.920000076293945,2.712500095367432
9.191784868535512,-0.0309880003333091,-0.9796599745750428,-0.1373720020055771,-5.949999809265137,-3.7100000381469727,2.6600000858306885
9.211942291492827,-0.0339160002768039,-0.982587993144989,-0.1381039917469024,-6.177500247955322,-3.307500123977661,2.782500028610229
9.232099714450142,-0.0370879992842674,-0.9962520003318788,-0.1439599990844726,-6.702499866485596,-2.7300000190734863,2.5899999141693115
9.252257137407456,-0.0397720001637935,-0.9974719882011414,-0.1507920026779174,-6.335000038146973,-2.117500066757202,2.6424999237060547
9.272414560364771,-0.0405040010809898,-0.9860039949417114,-0.1485960036516189,-5.862500190734863,-1.5399999618530271,2.9749999046325684
9.292571983322086,-0.0458719991147518,-0.97599995136261,-0.1417640000581741,-6.125,-1.3300000429153442,2.9574999809265137
9.3127294062794,-0.05197199806571,-0.985759973526001,-0.1407880038022995,-6.877500057220459,-1.6449999809265137,2.7300000190734863
9.332886829236715,-0.052216000854969,-0.9855159521102904,-0.1517679989337921,-7.139999866485596,-1.6974999904632568,2.6600000858306885
9.35304425219403,-0.0544119998812675,-0.9835639595985411,-0.1610399931669235,-7.262499809265137,-1.5399999618530271,2.8350000381469727
9.373201675151345,-0.0558759979903698,-0.9630680084228516,-0.1639679968357086,-6.720000267028809,-1.0499999523162842,3.2725000381469727
9.39335909810866,-0.05197199806571,-0.9781959652900696,-0.1722639948129654,-8.732500076293945,-0.4900000095367431,4.252500057220459
9.413516521065974,-0.0490439981222152,-0.9821000099182128,-0.1715319901704788,-8.592499732971191,-0.1749999970197677,4.09499979019165
9.433673944023289,-0.0492879971861839,-0.981611967086792,-0.171775996685028,-8.032500267028809,0.1400000005960464,3.4825000762939453
9.453831366980603,-0.0592919997870922,-0.985759973526001,-0.1781200021505355,-8.119999885559082,0.1400000005960464,3.0625
9.473988789937918,-0.0707599967718124,-0.9991799592971802,-0.1937360018491745,-8.767499923706055,-0.0700000002980232,2.9049999713897705
9.494146212895233,-0.0727119967341423,-0.9964959621429444,-0.2125239968299865,-8.75,0.3675000071525574,2.327500104904175
9.514303635852547,-0.0778359994292259,-1.0003999471664429,-0.2222839891910553,-9.835000038146973,0.7875000238418579,2.2049999237060547
9.534461058809862,-0.0756400004029274,-1.0191879272460938,-0.234727993607521,-11.112500190734863,0.612500011920929,2.4674999713897705
9.554618481767177,-0.0646599978208541,-1.046515941619873,-0.2476599961519241,-11.9350004196167,0.7875000238418579,2.799999952316284
9.574775904724492,-0.0607559978961944,-1.0574959516525269,-0.2515639960765838,-10.744999885559082,1.4175000190734863,2.484999895095825
9.594933327681806,-0.076615996658802,-1.0369999408721924,-0.2452199906110763,-8.067500114440918,2.0999999046325684,2.3975000381469727
9.615090750639121,-0.1036999970674514,-1.0094280242919922,-0.2505879998207092,-5.757500171661377,2.117500066757202,3.0975000858306885
9.635248173596436,-0.1424959897994995,-0.982587993144989,-0.2757200002670288,-3.849999904632568,2.712500095367432,5.6875
9.65540559655375,-0.1598199903964996,-0.9833199977874756,-0.2503440082073211,-4.829999923706055,0.7175000309944153,8.732500076293945
9.675563019511065,-0.1507920026779174,-0.998203992843628,-0.2174039930105209,-6.789999961853027,-3.4649999141693115,9.99250030517578
9.69572044246838,-0.1217559948563575,-0.9977160096168518,-0.1991039961576461,-7.420000076293945,-6.422500133514404,8.75
9.715877865425695,-0.0822279974818229,-0.9823439717292786,-0.1800719946622848,-7.595000267028809,-6.002500057220459,7.349999904632568
9.73603528838301,-0.0527039989829063,-0.9462319612503052,-0.1783639937639236,-7.367499828338623,-4.619999885559082,7.227499961853027
9.756192711340324,-0.047580000013113,-0.8981639742851257,-0.1820240020751953,-8.4350004196167,-3.3424999713897705,8.382499694824219
9.776350134297639,-0.0568519979715347,-0.8691279888153076,-0.1668960005044937,-10.640000343322754,-2.362499952316284,9.869999885559082
9.796507557254953,-0.0749079957604408,-0.8598560094833374,-0.1493279933929443,-12.302499771118164,-1.995000004768372,10.710000038146973
9.816664980212268,-0.0807639956474304,-0.8803519606590271,-0.1395680010318756,-13.335000038146973,-3.587500095367432,10.762499809265137
9.836822403169583,-0.0736880004405975,-0.912559986114502,-0.1361519992351532,-12.6875,-4.900000095367432,10.02750015258789
9.856979826126897,-0.0812520012259483,-0.9330559968948364,-0.1417640000581741,-10.010000228881836,-5.215000152587891,8.102499961853027
9.877137249084212,-0.0551439970731735,-0.925491988658905,-0.1444479972124099,-6.510000228881836,-4.690000057220459,5.40749979019165
9.897294672041527,-0.0614879988133907,-0.9164639711380004,-0.1700679957866668,-4.707499980926514,-3.587500095367432,2.309999942779541
9.917452094998842,-0.052216000854969,-0.90938800573349,-0.1815359890460968,-4.602499961853027,-2.765000104904175,0.8224999904632568
9.937609517956156,-0.0727119967341423,-0.8974319696426392,-0.1944679915904998,-4.952499866485596,-2.4674999713897705,0.0700000002980232
9.957766940913471,-0.1012599989771843,-0.915731966495514,-0.2015440016984939,-7.577499866485596,-3.902499914169312,-0.3675000071525574
9.977924363870786,-0.1137039959430694,-0.941107988357544,-0.2149640023708343,-9.800000190734863,-5.162499904632568,-0.6825000047683716
9.9980817868281,-0.1041879951953888,-0.9472079873085022,-0.2371679991483688,-11.585000038146973,-4.865000247955322,-0.4550000131130218
10.018239209785415,-0.085887998342514,-0.9513559937477112,-0.2481479942798614,-14.980000495910645,-3.674999952316284,0.2450000047683715
10.03839663274273,-0.0756400004029274,-0.970143973827362,-0.2544919848442077,-17.97249984741211,-2.2225000858306885,2.345000028610229
10.058554055700045,-0.0871080011129379,-0.966484010219574,-0.2454639971256256,-18.497499465942383,-1.1024999618530271,3.552500009536743
10.07871147865736,-0.1088239997625351,-0.9640439748764038,-0.2413159906864166,-19.11000061035156,-0.5249999761581421,4.619999885559082
10.098868901614674,-0.1332239955663681,-0.957211971282959,-0.230335995554924,-19.774999618530277,-0.6299999952316284,5.565000057220459
10.119026324571989,-0.1390800029039383,-0.944767951965332,-0.2286279946565628,-20.28249931335449,-1.347499966621399,6.720000267028809
10.139183747529303,-0.1254159957170486,-0.938423991203308,-0.2335079908370971,-20.93000030517578,-1.5924999713897705,8.015000343322754
10.159341170486618,-0.10589599609375,-0.9264679551124572,-0.2225279957056045,-20.94750022888184,-1.2074999809265137,9.204999923706056
10.179498593443933,-0.0910120010375976,-0.9145119786262512,-0.2086199969053268,-21.01749992370605,-0.3849999904632568,10.412500381469728
10.199656016401248,-0.0897919982671737,-0.9167079925537108,-0.1966639906167984,-21.50749969482422,-0.0700000002980232,11.532500267028809
10.219813439358562,-0.0968680009245872,-0.9232959747314452,-0.1908079981803894,-21.979999542236328,-1.0674999952316284,12.460000038146973
10.239970862315877,-0.1017479971051216,-0.920367956161499,-0.1898320019245147,-21.82250022888184,-2.257499933242798,12.949999809265137
10.260128285273192,-0.1066280007362365,-0.8823039531707764,-0.1991039961576461,-20.825000762939453,-2.992500066757202,12.880000114440918
10.280285708230506,-0.1193159967660904,-0.843995988368988,-0.2022759914398193,-21.420000076293945,-3.447499990463257,13.667500495910645
10.300443131187821,-0.1273680031299591,-0.8427760004997253,-0.1888559907674789,-23.8174991607666,-5.897500038146973,15.68000030517578
10.320600554145136,-0.1327359974384308,-0.8583920001983643,-0.1737279891967773,-25.479999542236328,-8.557499885559082,17.56999969482422
10.34075797710245,-0.1459119915962219,-0.8625400066375732,-0.1681160032749176,-25.32250022888184,-11.6899995803833,18.200000762939453
10.360915400059765,-0.1305399984121322,-0.8449719548225403,-0.1881240010261535,-24.552499771118164,-14.262499809265137,17.639999389648438
10.38107282301708,-0.0978439971804618,-0.8056879639625549,-0.2176479995250702,-24.815000534057617,-14.06999969482422,17.0625
10.401230245974395,-0.0822279974818229,-0.7563999891281128,-0.2364359945058822,-27.57999992370605,-11.829999923706056,17.325000762939453
10.42138766893171,-0.0649039968848228,-0.7466399669647217,-0.2454639971256256,-31.727500915527344,-11.619999885559082,17.2549991607666
10.441545091889024,-0.0800319984555244,-0.7451759576797485,-0.2466839998960495,-33.67000198364258,-11.707500457763672,16.082500457763672
10.461702514846339,-0.1193159967660904,-0.7783600091934204,-0.224723994731903,-34.49250030517578,-14.140000343322754,15.697500228881836
10.481859937803653,-0.1607960015535354,-0.8108119964599609,-0.2032520025968551,-32.40999984741211,-16.677499771118164,16.940000534057617
10.502017360760968,-0.1617719978094101,-0.8359439969062805,-0.2030079960823059,-27.5625,-20.93000030517578,19.4950008392334
10.522174783718283,-0.1219999939203262,-0.8252080082893372,-0.2088640034198761,-22.45249938964844,-22.592500686645508,21.59499931335449
10.542332206675598,-0.100283995270729,-0.7849479913711548,-0.1720200031995773,-18.51499938964844,-23.309999465942383,20.825000762939453
10.562489629632912,-0.0641719996929168,-0.7512759566307068,-0.1210239976644516,-18.09499931335449,-24.850000381469727,18.14750099182129
10.582647052590227,-0.023667998611927,-0.7639639973640442,-0.0841799974441528,-22.32999992370605,-27.842500686645508,15.27750015258789
10.602804475547542,-0.0341599993407726,-0.6727079749107361,-0.0588039979338645,-24.9375,-25.30500030517578,18.82999992370605
10.622961898504856,-0.0043919999152421,-0.5341159701347351,-0.0895479992032051,-23.83500099182129,-20.475000381469727,23.747499465942383
10.643119321462171,-0.0224479995667934,-0.3720999956130981,-0.1210239976644516,-20.57999992370605,-11.217499732971191,33.14500045776367
10.663276744419486,-0.1478639990091323,-0.3045119941234588,-0.1605519950389862,-21.29750061035156,-14.90999984741211,41.00249862670898
10.6834341673768,-0.1134599968791008,-0.2561999857425689,-0.1290760040283203,-7.315000057220459,-40.52999877929688,38.5525016784668
10.703591590334115,-0.0512399971485137,0.3567279875278473,-0.195932000875473,66.53500366210938,-42.17499923706055,24.149999618530277
10.72374901329143,-0.3374519944190979,0.8671759963035583,-0.3030479848384857,6.579999923706055,-5.232500076293945,43.27750015258789
10.743906436248745,-0.2971920073032379,-0.7017439603805542,-0.5177679657936096,-232.43499755859372,-38.02750015258789,56.244998931884766
10.76406385920606,-0.0912560001015663,-1.678719997406006,-0.3057319819927215,-172.70750427246094,-63.73500061035156,44.5724983215332
10.784221282163374,-0.2825520038604736,-0.851315975189209,-0.4472520053386688,-1.1375000476837158,-14.542500495910645,38.43000030517578
10.804378705120689,-0.5714479684829712,-0.2066679894924163,-0.7683559656143188,35.84000015258789,-8.697500228881836,42.560001373291016
10.824536128078003,-0.4623799920082092,-0.1554279923439026,-0.7407839894294739,-28.2450008392334,-77.20999908447266,70.29750061035156
10.844693551035318,-0.563152015209198,-0.3640480041503906,-0.8666880130767822,-84.17500305175781,-93.23999786376952,90.8249969482422
10.864850973992633,-0.7847039699554443,-0.774944007396698,-1.0245559215545654,-136.2375030517578,-103.3550033569336,97.9124984741211
10.885008396949948,-0.5941399931907654,-0.6400119662284851,-0.5453400015830994,-144.75999450683594,-144.86500549316406,130.65499877929688
10.905165819907262,-0.6039000153541565,-0.533627986907959,-0.4870239794254303,-166.75750732421875,-111.86000061035156,186.1125030517578
10.925323242864577,-0.7944639921188354,-0.6641680002212524,-0.5314319729804993,-221.7075042724609,-117.04000091552734,204.2250061035156
10.945480665821892,-0.774944007396698,-1.0482239723205566,-1.0872639417648315,-237.87750244140625,-115.37750244140624,205.5200042724609
10.965638088779206,-3.0151078701019287,0.4330999851226806,-2.3023838996887207,-222.4600067138672,337.5924987792969,394.2749938964844
10.985795511736521,-0.0841799974441528,1.665787935256958,-1.4632679224014282,-232.34750366210935,410.9525146484375,353.13250732421875
11.005952934693836,-1.428131937980652,0.4611600041389465,-2.3143398761749268,-282.36248779296875,-57.557498931884766,81.84750366210938
11.02611035765115,-1.7355719804763794,0.4618919789791107,-2.342400074005127,-316.6449890136719,-168.6999969482422,99.01499938964844
11.046267780608465,-1.9092999696731567,-0.2239919900894165,-2.259683847427368,-344.1025085449219,-128.32749938964844,162.20750427246094
11.06642520356578,-2.0271520614624023,-0.7539600133895874,-1.776319980621338,-403.3924865722656,-161.875,353.23748779296875
11.086582626523095,-1.2807559967041016,0.4460319876670837,-0.941107988357544,-43.837501525878906,-85.59249877929688,323.92498779296875
11.10674004948041,-0.8200839757919312,1.0445640087127686,-0.7278519868850708,177.34500122070312,-51.53749847412109,294.5425109863281
11.126897472437724,-0.9396439790725708,1.0701839923858645,-1.063107967376709,185.90249633789065,-93.50250244140624,138.8800048828125
11.147054895395039,-0.6056079864501953,1.4676599502563477,-0.9201239943504332,160.64999389648438,-129.53500366210938,-5.635000228881836
11.167212318352354,-0.387472003698349,1.2085319757461548,-0.4611600041389465,130.75999450683594,-104.00250244140624,-16.572500228881836
11.187369741309668,-0.1000399962067604,0.9501360058784484,-0.3691720068454742,84.01750183105469,-78.2249984741211,-23.607500076293945
11.207527164266983,0.2239919900894165,0.3213479816913605,-0.0434319972991943,-11.917500495910645,38.60499954223633,-26.372499465942383
11.227684587224298,0.0983319953083992,0.0275719985365867,0.0434319972991943,-8.767499923706055,84.59500122070312,-24.3075008392334
11.247842010181612,0.0997959971427917,-0.0117119997739791,0.0226919986307621,23.292499542236328,80.1675033569336,-27.755001068115234
11.267999433138927,0.0092719998210668,0.0229359995573759,-0.0863759964704513,57.26000213623047,88.4800033569336,-29.75
11.288156856096242,-0.0580720007419586,0.3689279854297638,-0.249123990535736,99.24250030517578,97.86000061035156,-16.239999771118164
11.308314279053556,-0.1107759997248649,0.7717719674110413,-0.4853159785270691,104.31749725341795,166.38999938964844,12.984999656677246
11.328471702010871,-0.2740119993686676,0.5909680128097534,-0.34647998213768,60.28749847412109,213.3950042724609,21.36750030517578
11.348629124968186,-0.4374919831752777,-0.2364359945058822,-1.0416359901428225,84.55999755859375,323.9075012207031,-35.70000076293945
11.3687865479255,-0.5587599873542786,0.3845439851284027,-1.2692879438400269,126.41999816894533,384.8949890136719,-82.37249755859375
11.388943970882815,-0.3850319981575012,0.4745799899101257,-0.6512359976768494,-80.34249877929688,14.385000228881836,-24.3075008392334
11.40910139384013,-0.2906039953231811,0.8520479798316956,-0.6351320147514343,-41.0724983215332,-59.53499984741211,-13.0024995803833
11.429258816797445,-0.3559959828853607,0.9147560000419616,-0.937936007976532,-13.614999771118164,-59.95500183105469,-19.162500381469727
11.44941623975476,-0.6212239861488342,0.9745360016822816,-1.0992200374603271,-12.949999809265137,-36.92499923706055,-28.542499542236328
11.469573662712074,-0.6414759755134583,0.7451759576797485,-1.1092239618301392,-2.012500047683716,-11.0600004196167,-21.174999237060547
11.489731085669389,-0.4831199944019317,0.4814119935035705,-1.1960879564285278,6.054999828338623,2.012500047683716,-5.53000020980835
11.509888508626704,-0.5477799773216248,0.4255359768867492,-1.2187799215316772,16.852500915527344,6.40500020980835,5.232500076293945
11.530045931584018,-0.4775079786777496,0.6207360029220581,-1.1697360277175903,31.01000022888184,12.145000457763672,9.712499618530272
11.550203354541333,-0.3613640069961548,0.541923999786377,-1.142408013343811,35.349998474121094,23.712499618530277,6.650000095367432
11.570360777498648,-0.260591983795166,0.2920680046081543,-1.0889719724655151,34.02000045776367,29.399999618530277,3.255000114440918
11.590518200455962,-0.2508319914340973,0.2044719904661178,-0.9974719882011414,39.79500198364258,31.51749992370605,4.375
11.610675623413277,-0.2513200044631958,0.2369239926338195,-0.8947479724884033,43.20750045776367,32.619998931884766,6.982500076293945
11.630833046370592,-0.2220399975776672,0.1986159980297088,-0.8413119912147522,44.92250061035156,37.06499862670898,7.227499961853027
11.650990469327906,-0.2064239978790283,0.1712879985570907,-0.826915979385376,44.380001068115234,43.032501220703125,6.107500076293945
11.671147892285221,-0.1861719936132431,0.1654319912195205,-0.7981239557266235,38.307498931884766,44.48500061035156,4.357500076293945
11.691305315242536,-0.1105320006608963,0.095891997218132,-0.7776280045509338,34.212501525878906,42.84000015258789,2.1875
11.71146273819985,-0.1293199956417083,0.1498159915208816,-0.801539957523346,27.07250022888184,35.94499969482422,2.6075000762939453
11.731620161157165,-0.1407880038022995,0.1507920026779174,-0.8259400129318237,19.0575008392334,27.247499465942383,2.7300000190734863
11.75177758411448,-0.1456679999828338,0.1522559970617294,-0.8669319748878479,13.440000534057615,22.645000457763672,2.677500009536743
11.771935007071795,-0.1527439951896667,0.1598199903964996,-0.9342759847640992,9.69499969482422,20.649999618530277,1.9600000381469729
11.79209243002911,-0.1686040014028549,0.1764120012521743,-0.9777079820632936,5.792500019073486,17.53499984741211,1.3650000095367432
11.812249852986424,-0.1842200011014938,0.1949559897184372,-1.0299240350723269,1.225000023841858,13.737500190734863,0.699999988079071
11.832407275943739,-0.20032399892807,0.2105719894170761,-1.0572519302368164,-2.2049999237060547,10.289999961853027,0.6299999952316284
11.852564698901054,-0.2010560035705566,0.2132560014724731,-1.0765279531478882,-5.582499980926514,6.369999885559082,0.7875000238418579
11.872722121858368,-0.1912959963083267,0.2235039919614792,-1.0806759595870972,-7.787499904632568,2.555000066757202,0.5774999856948853
11.892879544815683,-0.1700679957866668,0.2317999899387359,-1.065060019493103,-8.557499885559082,-0.4724999964237213,0.3149999976158142
11.913036967772998,-0.1559159904718399,0.2352159917354583,-1.0128439664840698,-9.852499961853027,-4.025000095367432,0.2450000047683715
11.933194390730312,-0.1537199914455413,0.2274079918861389,-0.9640439748764038,-11.322500228881836,-7.857500076293945,0.0525000020861625
11.953351813687627,-0.1576239913702011,0.2337519973516464,-0.9403759837150574,-12.582500457763672,-10.1850004196167,0.0874999985098838
11.973509236644942,-0.1534759998321533,0.2335079908370971,-0.9257360100746156,-13.369999885559082,-11.619999885559082,0.3849999904632568
11.993666659602257,-0.1564040035009384,0.2298479974269867,-0.9169519543647766,-12.61750030517578,-10.989999771118164,0.2975000143051147
12.013824082559571,-0.1634799987077713,0.2293599992990493,-0.9081679582595824,-11.829999923706056,-9.782500267028809,0.2100000083446502
12.033981505516886,-0.1683599948883056,0.2378999888896942,-0.8971880078315735,-11.234999656677246,-8.890000343322754,0.3149999976158142
12.0541389284742,-0.1729959994554519,0.2391199916601181,-0.8879159688949585,-10.552499771118164,-8.522500038146973,0.3499999940395355
12.074296351431515,-0.1781200021505355,0.2418039888143539,-0.8886479735374451,-9.572500228881836,-8.137499809265137,0.4200000166893005
12.09445377438883,-0.1856839954853058,0.2464399933815002,-0.9018239974975586,-8.207500457763672,-7.454999923706055,0.3149999976158142
12.114611197346145,-0.1944679915904998,0.2540040016174316,-0.9164639711380004,-7.017499923706055,-6.982500076293945,0.1924999952316284
12.13476862030346,-0.1995919942855835,0.2583959996700287,-0.929152011871338,-6.054999828338623,-6.492499828338623,0.1225000023841857
12.154926043260774,-0.2047159969806671,0.2627879977226257,-0.9381799697875975,-5.022500038146973,-5.862500190734863,0.0874999985098838
12.175083466218089,-0.2108159959316253,0.2654719948768616,-0.9452559947967528,-3.7100000381469727,-5.179999828338623,-0.0874999985098838
12.195240889175404,-0.2134999930858612,0.2620559930801391,-0.9425719976425172,-2.240000009536743,-4.007500171661377,-0.2275000065565109
12.215398312132718,-0.2125239968299865,0.2581520080566406,-0.9372040033340454,-0.6299999952316284,-2.3975000381469727,-0.2975000143051147
12.235555735090033,-0.2113039940595626,0.2686440050601959,-0.9313479661941528,0.4375,-1.1549999713897705,-0.3499999940395355
12.255713158047348,-0.2064239978790283,0.260591983795166,-0.924515962600708,1.0674999952316284,0.0175000000745058,-0.2975000143051147
12.275870581004662,-0.2054480016231537,0.2559559941291809,-0.9252479672431946,1.5575000047683716,1.3300000429153442,-0.2275000065565109
12.296028003961977,-0.2034959942102432,0.2569319903850555,-0.9264679551124572,2.012500047683716,2.414999961853028,-0.1050000041723251
12.316185426919292,-0.1998360008001327,0.2554679811000824,-0.9242720007896424,2.625,3.325000047683716,-0.0874999985098838
12.336342849876607,-0.1949559897184372,0.2496119886636734,-0.913047969341278,3.0625,4.164999961853027,-0.1050000041723251
12.356500272833921,-0.1925159990787506,0.2479040026664734,-0.9206119775772096,3.569999933242798,4.585000038146973,-0.1924999952316284
12.376657695791236,-0.1922719925642013,0.2527839839458465,-0.9232959747314452,4.287499904632568,4.497499942779541,-0.2975000143051147
12.39681511874855,-0.1871479898691177,0.2498559951782226,-0.9252479672431946,3.902499914169312,4.550000190734863,-0.2275000065565109
12.416972541705865,-0.1866599917411804,0.248879998922348,-0.937936007976532,3.447499990463257,4.042500019073486,-0.1225000023841857
12.43712996466318,-0.1864160001277923,0.2510759830474853,-0.9437919855117798,3.0799999237060547,3.7274999618530273,-0.1050000041723251
12.457287387620495,-0.1839759945869445,0.2500999867916107,-0.9476959705352784,2.694999933242798,3.132499933242798,-0.1400000005960464
12.47744481057781,-0.1839759945869445,0.2481479942798614,-0.949891984462738,2.3975000381469727,2.414999961853028,-0.1574999988079071
12.497602233535124,-0.1844639927148819,0.2474159896373748,-0.949891984462738,1.995000004768372,1.715000033378601,-0.1924999952316284
12.517759656492439,-0.1844639927148819,0.2469279915094375,-0.949404001235962,1.399999976158142,1.1549999713897705,-0.2100000083446502
12.537917079449754,-0.1839759945869445,0.2471719980239868,-0.949891984462738,0.7699999809265137,0.6825000047683716,-0.1924999952316284
12.558074502407068,-0.183243989944458,0.2459519952535629,-0.9452559947967528,0.1924999952316284,0.2100000083446502,-0.1749999970197677
12.578231925364383,-0.1829999983310699,0.2444880008697509,-0.94159597158432,-0.2100000083446502,-0.1050000041723251,-0.1749999970197677
12.598389348321698,-0.1851959973573684,0.2454639971256256,-0.938423991203308,-0.5074999928474426,-0.3849999904632568,-0.1574999988079071
12.618546771279012,-0.1854400038719177,0.2454639971256256,-0.9354959726333618,-0.7524999976158142,-0.612500011920929,-0.1574999988079071
12.638704194236327,-0.1849519908428192,0.2459519952535629,-0.9345200061798096,-0.962499976158142,-0.7875000238418579,-0.1400000005960464
12.658861617193642,-0.1871479898691177,0.2464399933815002,-0.9325679540634156,-0.9975000023841858,-0.962499976158142,-0.1574999988079071
12.679019040150957,-0.1878799945116043,0.2466839998960495,-0.9313479661941528,-0.9975000023841858,-1.0325000286102295,-0.0874999985098838
12.699176463108271,-0.1900759935379028,0.2474159896373748,-0.93232399225235,-0.9100000262260436,-0.9449999928474426,-0.1050000041723251
12.719333886065586,-0.1898320019245147,0.248879998922348,-0.9330559968948364,-0.6650000214576721,-0.8050000071525574,-0.0874999985098838
12.7394913090229,-0.1898320019245147,0.2496119886636734,-0.933788001537323,-0.3849999904632568,-0.5950000286102295,-0.0874999985098838
12.759648731980215,-0.1898320019245147,0.2498559951782226,-0.935252010822296,-0.2100000083446502,-0.2450000047683715,-0.1400000005960464
12.77980615493753,-0.1910519897937774,0.2505879998207092,-0.9350079894065856,0.0525000020861625,0.0700000002980232,-0.1225000023841857
12.799963577894845,-0.1895879954099655,0.2508319914340973,-0.9362279772758484,0.1574999988079071,0.5074999928474426,-0.1050000041723251
12.82012100085216,-0.1883679926395416,0.2522960007190704,-0.935252010822296,0.4900000095367431,0.5950000286102295,-0.1225000023841857
12.840278423809474,-0.1893439888954162,0.2503440082073211,-0.9357399940490724,0.5950000286102295,0.7875000238418579,-0.1574999988079071
12.860435846766789,-0.1883679926395416,0.248879998922348,-0.9354959726333618,0.699999988079071,0.962499976158142,-0.1574999988079071
12.880593269724104,-0.187391996383667,0.249123990535736,-0.9350079894065856,0.7350000143051147,1.1024999618530271,-0.1749999970197677
12.900750692681418,-0.1869039982557296,0.2486359924077987,-0.935252010822296,0.7699999809265137,1.1024999618530271,-0.1924999952316284
12.920908115638733,-0.1869039982557296,0.2479040026664734,-0.9357399940490724,0.8400000333786011,1.0850000381469729,-0.2100000083446502
12.941065538596048,-0.1861719936132431,0.2479040026664734,-0.9367159605026244,0.8400000333786011,1.0674999952316284,-0.2275000065565109
12.961222961553363,-0.1854400038719177,0.2479040026664734,-0.9381799697875975,0.7875000238418579,0.962499976158142,-0.2100000083446502
12.981380384510677,-0.1864160001277923,0.2476599961519241,-0.9393999576568604,0.6825000047683716,0.7875000238418579,-0.1924999952316284
13.001537807467992,-0.1856839954853058,0.2479040026664734,-0.9403759837150574,0.6474999785423279,0.5950000286102295,-0.2450000047683715
13.021695230425307,-0.1849519908428192,0.2466839998960495,-0.9386679530143738,0.4025000035762787,0.3499999940395355,-0.1574999988079071
13.041852653382621,-0.185928001999855,0.2454639971256256,-0.9342759847640992,0.1749999970197677,0.1749999970197677,-0.2100000083446502
13.062010076339936,-0.185928001999855,0.2454639971256256,-0.9350079894065856,-0.0350000001490116,0.1400000005960464,-0.1924999952316284
13.08216749929725,-0.1851959973573684,0.2476599961519241,-0.9367159605026244,0.0700000002980232,0.0350000001490116,-0.1749999970197677
13.102324922254565,-0.1851959973573684,0.2474159896373748,-0.9364719986915588,-0.1225000023841857,-0.0700000002980232,-0.1574999988079071
13.12248234521188,-0.1849519908428192,0.248879998922348,-0.936959981918335,-0.1574999988079071,-0.1050000041723251,-0.1574999988079071
13.142639768169195,-0.185928001999855,0.2500999867916107,-0.9389119744300842,-0.0175000000745058,-0.2450000047683715,-0.1924999952316284
13.16279719112651,-0.1876360028982162,0.2503440082073211,-0.9393999576568604,0.0525000020861625,-0.2275000065565109,-0.1749999970197677
13.182954614083824,-0.1876360028982162,0.2503440082073211,-0.9386679530143738,0.1574999988079071,-0.0874999985098838,-0.1924999952316284
13.203112037041139,-0.1871479898691177,0.2493679970502853,-0.9374479651451112,0.262499988079071,0.0525000020861625,-0.2100000083446502
13.223269459998454,-0.1876360028982162,0.2493679970502853,-0.935983955860138,0.262499988079071,0.1924999952316284,-0.1749999970197677
13.243426882955768,-0.1876360028982162,0.2479040026664734,-0.935252010822296,0.262499988079071,0.3499999940395355,-0.1749999970197677
13.263584305913083,-0.1876360028982162,0.2483920007944107,-0.9357399940490724,0.2800000011920929,0.4550000131130218,-0.1924999952316284
13.283741728870398,-0.1864160001277923,0.2486359924077987,-0.936959981918335,0.262499988079071,0.5600000023841858,-0.1749999970197677
13.303899151827713,-0.1866599917411804,0.2476599961519241,-0.936959981918335,0.2975000143051147,0.4900000095367431,-0.1574999988079071
13.324056574785027,-0.1866599917411804,0.2476599961519241,-0.9350079894065856,0.3149999976158142,0.5600000023841858,-0.1924999952316284
13.344213997742342,-0.1856839954853058,0.2471719980239868,-0.9364719986915588,0.3675000071525574,0.5249999761581421,-0.2100000083446502
13.364371420699657,-0.1866599917411804,0.2471719980239868,-0.9367159605026244,0.3675000071525574,0.4900000095367431,-0.262499988079071
13.384528843656971,-0.1856839954853058,0.2486359924077987,-0.9354959726333618,0.3499999940395355,0.4724999964237213,-0.2450000047683715
13.404686266614286,-0.1856839954853058,0.2469279915094375,-0.9362279772758484,0.3675000071525574,0.3849999904632568,-0.1924999952316284
13.4248436895716,-0.1856839954853058,0.2483920007944107,-0.937936007976532,0.2975000143051147,0.3499999940395355,-0.1924999952316284
13.445001112528915,-0.1851959973573684,0.2476599961519241,-0.9398880004882812,0.2800000011920929,0.3499999940395355,-0.2100000083446502
13.46515853548623,-0.1842200011014938,0.2481479942798614,-0.9396439790725708,0.3149999976158142,0.2975000143051147,-0.2100000083446502
13.485315958443545,-0.1844639927148819,0.2496119886636734,-0.9386679530143738,0.3499999940395355,0.2800000011920929,-0.1924999952316284
13.50547338140086,-0.1847079992294311,0.2498559951782226,-0.937936007976532,0.2275000065565109,0.3149999976158142,-0.1924999952316284
13.525630804358174,-0.1851959973573684,0.2481479942798614,-0.9374479651451112,0.2100000083446502,0.2100000083446502,-0.1924999952316284
13.545788227315489,-0.1851959973573684,0.2486359924077987,-0.9364719986915588,0.0700000002980232,0.1749999970197677,-0.1749999970197677
13.565945650272804,-0.1854400038719177,0.2481479942798614,-0.9350079894065856,0.0525000020861625,0.1574999988079071,-0.1749999970197677
13.586103073230118,-0.1851959973573684,0.2479040026664734,-0.9357399940490724,-0.0350000001490116,0.1749999970197677,-0.2450000047683715
13.606260496187433,-0.1866599917411804,0.2471719980239868,-0.9362279772758484,0.0175000000745058,0.0874999985098838,-0.2275000065565109
13.626417919144748,-0.1864160001277923,0.2483920007944107,-0.9362279772758484,0.1574999988079071,0.1574999988079071,-0.1749999970197677
13.646575342102063,-0.1854400038719177,0.2481479942798614,-0.9374479651451112,0.1924999952316284,0.1749999970197677,-0.2275000065565109
13.666732765059377,-0.1866599917411804,0.2481479942798614,-0.9374479651451112,0.2100000083446502,0.1574999988079071,-0.2100000083446502
13.686890188016692,-0.1869039982557296,0.248879998922348,-0.9376919865608216,0.262499988079071,0.2800000011920929,-0.1574999988079071
13.707047610974007,-0.1861719936132431,0.2486359924077987,-0.9374479651451112,0.2800000011920929,0.3499999940395355,-0.1225000023841857
13.727205033931321,-0.1851959973573684,0.2481479942798614,-0.935983955860138,0.3499999940395355,0.3149999976158142,-0.1574999988079071
13.747362456888636,-0.1856839954853058,0.2486359924077987,-0.9362279772758484,0.3499999940395355,0.4025000035762787,-0.1749999970197677
13.76751987984595,-0.1844639927148819,0.2483920007944107,-0.9364719986915588,0.3849999904632568,0.4200000166893005,-0.1924999952316284
13.787677302803266,-0.1851959973573684,0.2486359924077987,-0.9376919865608216,0.4724999964237213,0.2975000143051147,-0.2100000083446502
13.80783472576058,-0.1854400038719177,0.2483920007944107,-0.9381799697875975,0.3849999904632568,0.4025000035762787,-0.1574999988079071
13.827992148717895,-0.1844639927148819,0.2483920007944107,-0.9389119744300842,0.4375,0.3499999940395355,-0.1924999952316284
13.84814957167521,-0.1851959973573684,0.2483920007944107,-0.9367159605026244,0.332500010728836,0.2975000143051147,-0.1749999970197677
13.868306994632524,-0.1839759945869445,0.248879998922348,-0.9386679530143738,0.2975000143051147,0.2800000011920929,-0.1924999952316284
13.888464417589839,-0.1847079992294311,0.2479040026664734,-0.9386679530143738,0.332500010728836,0.2800000011920929,-0.2100000083446502
13.908621840547154,-0.1851959973573684,0.2479040026664734,-0.937936007976532,0.332500010728836,0.3149999976158142,-0.1924999952316284
13.928779263504468,-0.1854400038719177,0.2466839998960495,-0.9318360090255736,0.2450000047683715,0.3499999940395355,-0.1749999970197677
13.948936686461783,-0.1842200011014938,0.2464399933815002,-0.9347639679908752,0.1050000041723251,0.332500010728836,-0.2100000083446502
13.969094109419098,-0.1844639927148819,0.2471719980239868,-0.9367159605026244,0.4025000035762787,0.2450000047683715,-0.1749999970197677
13.989251532376413,-0.1856839954853058,0.2486359924077987,-0.9357399940490724,0.1749999970197677,0.2800000011920929,-0.1574999988079071
14.009408955333727,-0.1849519908428192,0.249123990535736,-0.9386679530143738,0.1400000005960464,0.1400000005960464,-0.1574999988079071
14.029566378291042,-0.1844639927148819,0.2498559951782226,-0.9401319622993468,0.1924999952316284,0.0175000000745058,-0.1924999952316284
14.049723801248357,-0.1854400038719177,0.2503440082073211,-0.9403759837150574,0.262499988079071,-0.0525000020861625,-0.2100000083446502
14.069881224205671,-0.1854400038719177,0.2503440082073211,-0.9396439790725708,0.3675000071525574,0.1400000005960464,-0.2100000083446502
14.090038647162986,-0.1851959973573684,0.2496119886636734,-0.9389119744300842,0.4375,0.2800000011920929,-0.2100000083446502
14.1101960701203,-0.1854400038719177,0.249123990535736,-0.937936007976532,0.3849999904632568,0.3849999904632568,-0.1924999952316284
14.130353493077616,-0.185928001999855,0.2474159896373748,-0.9372040033340454,0.262499988079071,0.3849999904632568,-0.2100000083446502
14.15051091603493,-0.1861719936132431,0.2481479942798614,-0.9374479651451112,0.2450000047683715,0.4025000035762787,-0.1924999952316284
14.170668338992245,-0.1849519908428192,0.2481479942798614,-0.936959981918335,0.2100000083446502,0.4025000035762787,-0.2275000065565109
14.19082576194956,-0.1856839954853058,0.2474159896373748,-0.935983955860138,0.1225000023841857,0.3499999940395355,-0.1924999952316284
14.210983184906874,-0.1851959973573684,0.2469279915094375,-0.9357399940490724,0.0874999985098838,0.332500010728836,-0.1924999952316284
14.231140607864189,-0.1854400038719177,0.2474159896373748,-0.9362279772758484,0.1574999988079071,0.2275000065565109,-0.2275000065565109
14.251298030821504,-0.1847079992294311,0.248879998922348,-0.935983955860138,0.1400000005960464,0.2450000047683715,-0.1924999952316284
14.271455453778819,-0.1842200011014938,0.248879998922348,-0.9367159605026244,0.1400000005960464,0.262499988079071,-0.1749999970197677
14.291612876736133,-0.1844639927148819,0.249123990535736,-0.9386679530143738,0.1050000041723251,0.1400000005960464,-0.2100000083446502
14.311770299693448,-0.1834879964590072,0.2493679970502853,-0.9389119744300842,0.1749999970197677,0.1574999988079071,-0.2275000065565109
14.331927722650763,-0.1844639927148819,0.2493679970502853,-0.9386679530143738,0.2100000083446502,0.1924999952316284,-0.2275000065565109
14.352085145608077,-0.1849519908428192,0.2493679970502853,-0.937936007976532,0.1924999952316284,0.262499988079071,-0.2100000083446502
14.372242568565392,-0.1849519908428192,0.2486359924077987,-0.9362279772758484,0.1749999970197677,0.262499988079071,-0.1924999952316284
14.392399991522707,-0.1844639927148819,0.248879998922348,-0.9372040033340454,0.1574999988079071,0.3149999976158142,-0.1924999952316284
14.412557414480021,-0.1844639927148819,0.2483920007944107,-0.9362279772758484,0.1050000041723251,0.332500010728836,-0.1924999952316284
14.432714837437336,-0.1849519908428192,0.2479040026664734,-0.9364719986915588,0.1225000023841857,0.262499988079071,-0.1749999970197677
14.452872260394651,-0.1844639927148819,0.2483920007944107,-0.935252010822296,0.0700000002980232,0.3149999976158142,-0.1749999970197677
14.473029683351966,-0.1851959973573684,0.2479040026664734,-0.935983955860138,0.1225000023841857,0.1574999988079071,-0.1749999970197677
14.49318710630928,-0.1847079992294311,0.2479040026664734,-0.935252010822296,0.1400000005960464,0.0700000002980232,-0.2450000047683715
14.513344529266595,-0.1856839954853058,0.248879998922348,-0.9347639679908752,0.1924999952316284,-0.1050000041723251,-0.2975000143051147
14.53350195222391,-0.1861719936132431,0.2479040026664734,-0.9340319633483888,0.2100000083446502,-0.1050000041723251,-0.262499988079071
14.553659375181224,-0.1849519908428192,0.2476599961519241,-0.935983955860138,0.3675000071525574,-0.2450000047683715,-0.2800000011920929
14.57381679813854,-0.1856839954853058,0.2479040026664734,-0.9345200061798096,0.4200000166893005,-0.2975000143051147,-0.2975000143051147
14.593974221095854,-0.1856839954853058,0.2481479942798614,-0.9406200051307678,0.5425000190734863,-0.4724999964237213,-0.2975000143051147
14.614131644053169,-0.1869039982557296,0.2486359924077987,-0.94159597158432,0.6299999952316284,-0.5950000286102295,-0.262499988079071
14.634289067010483,-0.1861719936132431,0.2486359924077987,-0.9391559958457948,0.6474999785423279,-0.6650000214576721,-0.2975000143051147
14.654446489967798,-0.1856839954853058,0.2493679970502853,-0.9374479651451112,0.5600000023841858,-0.4724999964237213,-0.262499988079071
14.674603912925113,-0.1851959973573684,0.2479040026664734,-0.9372040033340454,0.4375,-0.332500010728836,-0.2275000065565109
14.694761335882427,-0.1861719936132431,0.2471719980239868,-0.9347639679908752,0.3499999940395355,-0.4025000035762787,-0.2275000065565109
14.714918758839742,-0.185928001999855,0.2479040026664734,-0.9364719986915588,0.3675000071525574,-0.5425000190734863,-0.2450000047683715
14.735076181797057,-0.1878799945116043,0.2486359924077987,-0.9376919865608216,0.4200000166893005,-0.4724999964237213,-0.262499988079071
14.755233604754372,-0.1869039982557296,0.2474159896373748,-0.935983955860138,0.4900000095367431,-0.4200000166893005,-0.262499988079071
14.775391027711686,-0.1876360028982162,0.2486359924077987,-0.936959981918335,0.4025000035762787,-0.3675000071525574,-0.2450000047683715
14.795548450669001,-0.1886119991540908,0.2474159896373748,-0.936959981918335,0.3149999976158142,-0.5074999928474426,-0.262499988079071
14.815705873626316,-0.1888559907674789,0.2486359924077987,-0.9389119744300842,0.4025000035762787,-0.612500011920929,-0.2975000143051147
14.83586329658363,-0.1898320019245147,0.2471719980239868,-0.937936007976532,0.2450000047683715,-0.9100000262260436,-0.2450000047683715
14.856020719540945,-0.1910519897937774,0.2449759989976883,-0.935983955860138,0.0175000000745058,-1.347499966621399,-0.262499988079071
14.87617814249826,-0.1944679915904998,0.2454639971256256,-0.9418399930000304,-0.2100000083446502,-2.134999990463257,-0.262499988079071
14.896335565455574,-0.1951999962329864,0.2464399933815002,-0.946720004081726,-0.0700000002980232,-3.132499933242798,-0.332500010728836
14.91649298841289,-0.1947119981050491,0.2476599961519241,-0.944767951965332,-0.5600000023841858,-4.042500019073486,-0.3149999976158142
14.936650411370204,-0.1930039972066879,0.2479040026664734,-0.941107988357544,-0.9975000023841858,-5.09250020980835,-0.3149999976158142
14.956807834327519,-0.1937360018491745,0.2510759830474853,-0.9376919865608216,-1.4175000190734863,-6.002500057220459,-0.3499999940395355
14.976965257284833,-0.1966639906167984,0.2518079876899719,-0.9389119744300842,-1.8200000524520876,-6.40500020980835,-0.4375
14.997122680242148,-0.2000799924135208,0.2510759830474853,-0.9364719986915588,-1.9424999952316284,-6.579999923706055,-0.5774999856948853
15.017280103199463,-0.2025199979543686,0.2493679970502853,-0.9386679530143738,-2.117500066757202,-6.755000114440918,-0.612500011920929
15.037437526156777,-0.2039839923381805,0.249123990535736,-0.9345200061798096,-2.572499990463257,-7.332499980926514,-0.6299999952316284
15.057594949114092,-0.206179991364479,0.2510759830474853,-0.9311040043830872,-3.0799999237060547,-7.787499904632568,-0.6650000214576721
15.077752372071407,-0.2132560014724731,0.2498559951782226,-0.9325679540634156,-3.6050000190734863,-8.487500190734863,-0.7524999976158142
15.097909795028722,-0.2174039930105209,0.2503440082073211,-0.9318360090255736,-3.202500104904175,-9.22249984741211,-1.1200000047683716
15.118067217986036,-0.2237479984760284,0.2461960017681121,-0.9433040022850036,-2.065000057220459,-9.59000015258789,-1.5924999713897705
15.138224640943351,-0.2296039909124374,0.2449759989976883,-0.9364719986915588,-2.5374999046325684,-10.220000267028809,-1.7675000429153442
15.158382063900666,-0.2378999888896942,0.2464399933815002,-0.93232399225235,-4.09499979019165,-10.220000267028809,-1.9075000286102293
15.17853948685798,-0.2469279915094375,0.2481479942798614,-0.9220759868621826,-5.284999847412109,-9.59000015258789,-2.450000047683716
15.198696909815295,-0.2513200044631958,0.2586399912834167,-0.9308599829673768,-4.96999979019165,-7.542500019073486,-3.3600001335144043
15.21885433277261,-0.2513200044631958,0.2720600068569183,-0.9589200019836426,-2.992500066757202,-5.96750020980835,-4.357500076293945
15.239011755729925,-0.2474159896373748,0.2771840095520019,-0.933299958705902,-1.4524999856948853,-4.917500019073486,-5.039999961853027
15.25916917868724,-0.2420479953289032,0.2737680077552795,-0.9428159594535828,-4.357500076293945,-10.552499771118164,-4.707499980926514
15.279326601644554,-0.2542479932308197,0.2835280001163482,-1.012112021446228,-2.887500047683716,-9.1875,-5.127500057220459
15.299484024601869,-0.2630319893360138,0.313539981842041,-1.0257760286331177,-0.262499988079071,-9.59000015258789,-4.09499979019165
15.319641447559183,-0.2984119951725006,0.3264719843864441,-0.9967399835586548,-0.7350000143051147,-16.047500610351562,-3.7274999618530273
15.339798870516498,-0.2710839807987213,0.3206160068511963,-1.067255973815918,4.690000057220459,-15.190000534057615,-5.039999961853027
15.359956293473813,-0.2949959933757782,0.3254959881305694,-1.0960479974746704,9.467499732971191,-21.84000015258789,-8.032500267028809
15.380113716431127,-0.326227992773056,0.3667320013046264,-1.08189594745636,14.752500534057615,-24.27250099182129,-12.407500267028809
15.400271139388442,-0.2920680046081543,0.3516039848327636,-1.071403980255127,19.70499992370605,-26.70499992370605,-19.372499465942383
15.420428562345757,-0.3467240035533905,0.3594119846820831,-1.1770559549331665,19.18000030517578,-23.012500762939453,-22.924999237060547
15.440585985303072,-0.4226079881191253,0.3542879819869995,-1.083359956741333,-9.484999656677246,-43.92499923706055,-56.47249984741211
15.460743408260386,-0.5023959875106812,0.3767359852790832,-1.2314679622650146,4.637499809265137,-86.36250305175781,-72.25749969482422
15.480900831217701,-0.4445679783821106,0.2896279990673065,-0.9257360100746156,-8.78499984741211,-303.8525085449219,-61.16249847412109
15.501058254175016,-0.3003639876842499,0.3969880044460296,-1.3078399896621704,-50.85499954223633,-376.1275024414063,-69.0199966430664
15.52121567713233,-0.0810080021619796,0.2764520049095154,-0.9847840070724488,-49.10499954223633,-164.7449951171875,-55.14250183105469
15.541373100089645,-0.4335879981517792,0.1410319954156875,-0.9884439706802368,14.385000228881836,73.62249755859375,-29.08500099182129
15.56153052304696,-0.5204519629478455,0.4460319876670837,-0.7771399617195129,31.692501068115234,101.5,-19.232500076293945
15.581687946004275,-0.5687639713287354,-0.0256199985742568,-0.8252080082893372,-31.44750022888184,2.712500095367432,-13.475000381469728
15.60184536896159,-0.3745400011539459,0.0934519991278648,-0.7034519910812378,-13.737500190734863,-39.900001525878906,-23.65999984741211
15.622002791918904,-0.4440799951553345,0.1956879943609237,-0.6875919699668884,22.364999771118164,15.470000267028809,-21.052499771118164
15.642160214876219,-0.5216720104217529,0.2601040005683899,-0.6373279690742493,19.9325008392334,24.0625,-19.530000686645508
15.662317637833533,-0.5438759922981262,0.2515639960765838,-0.6304959654808044,8.802499771118164,0.2450000047683715,-17.360000610351562
15.682475060790848,-0.586575984954834,0.1937360018491745,-0.6727079749107361,6.369999885559082,-6.947500228881836,-15.38249969482422
15.702632483748163,-0.603655993938446,0.1615279912948608,-0.6439160108566284,9.345000267028809,-12.337499618530272,-18.357500076293945
15.722789906705477,-0.570472002029419,0.1790959984064102,-0.5812079906463623,7.71750020980835,-23.625,-20.14249992370605
15.742947329662792,-0.5838919878005981,0.1019919961690902,-0.6958879828453064,4.934999942779541,-38.90250015258789,-20.475000381469727
15.763104752620107,-0.562175989151001,0.1324919909238815,-0.6458680033683777,10.43000030517578,-43.942501068115234,-21.6299991607666
15.783262175577422,-0.5956040024757385,0.1849519908428192,-0.6378160119056702,16.11750030517578,-45.727500915527344,-21.350000381469727
15.803419598534736,-0.6239079833030701,0.2022759914398193,-0.7176039814949036,12.897500038146973,-48.93000030517578,-18.34000015258789
15.823577021492051,-0.6422079801559448,0.1383479982614517,-0.7176039814949036,2.625,-46.095001220703125,-18.39249992370605
15.843734444449366,-0.6517239809036255,0.1400559991598129,-0.6292759776115417,9.0649995803833,-37.08250045776367,-21.6825008392334
15.86389186740668,-0.685151994228363,0.1564040035009384,-0.5399720072746277,18.1825008392334,-31.21999931335449,-22.27750015258789
15.884049290363995,-0.7359039783477783,0.1500599980354309,-0.594871997833252,18.09499931335449,-28.524999618530277,-20.177499771118164
15.90420671332131,-0.6814919710159302,0.0895479992032051,-0.5470479726791382,12.477499961853027,-21.770000457763672,-20.107500076293945
15.924364136278625,-0.6878359913825989,0.0527039989829063,-0.6114639639854431,18.6200008392334,-9.922499656677246,-15.470000267028809
15.94452155923594,-0.7278519868850708,0.0314759984612464,-0.6080479621887207,23.39750099182129,5.477499961853027,-8.697500228881836
15.964678982193254,-0.7961719632148743,0.0163480006158351,-0.5851119756698608,26.4424991607666,20.020000457763672,-1.5575000047683716
15.984836405150569,-0.848143994808197,0.0409919992089271,-0.6324479579925537,30.04750061035156,18.934999465942383,3.1675000190734863
16.004993828107885,-0.8444839715957642,0.1122400015592575,-0.6051200032234192,28.524999618530277,14.40250015258789,6.702499866485596
16.0251512510652,-0.8232559561729431,0.100283995270729,-0.6361079812049866,20.59749984741211,12.302499771118164,10.5
16.045308674022515,-0.8078839778900146,0.0727119967341423,-0.6775879859924316,25.287500381469727,16.625,15.452500343322754
16.06546609697983,-0.7676239609718323,0.0885719954967498,-0.7010120153427124,31.97249984741211,9.0649995803833,16.415000915527344
16.085623519937144,-0.6802719831466675,0.0878399983048439,-0.7063800096511841,32.900001525878906,6.545000076293945,15.119999885559082
16.10578094289446,-0.6568480134010315,0.0444080010056495,-0.7100399732589722,33.07500076293945,7.472499847412109,13.579999923706056
16.125938365851773,-0.6451359987258911,-0.0495319999754428,-0.6873480081558228,35.314998626708984,10.797499656677246,10.779999732971191
16.146095788809088,-0.6063399910926819,0.0629519969224929,-0.6336680054664612,57.119998931884766,7.244999885559082,0.332500010728836
16.166253211766403,-0.6070719957351685,0.1334680020809173,-0.7049160003662109,57.837501525878906,15.015000343322754,1.225000023841858
16.186410634723718,-0.5670560002326965,0.1407880038022995,-0.6329360008239746,43.067501068115234,24.09749984741211,3.202500104904175
16.206568057681032,-0.5643720030784607,0.1459119915962219,-0.636352002620697,33.932498931884766,26.354999542236328,6.615000247955322
16.226725480638347,-0.5719360113143921,0.0771040022373199,-0.6344000101089478,19.65250015258789,24.86750030517578,6.019999980926514
16.24688290359566,-0.6126840114593506,-0.0007319999858736,-0.6570919752120972,17.02750015258789,28.174999237060547,5.914999961853027
16.267040326552976,-0.6304959654808044,-0.0275719985365867,-0.6595320105552673,24.482500076293945,20.05500030517578,-1.9774999618530276
16.28719774951029,-0.6092680096626282,0.0910120010375976,-0.7019879817962646,34.89500045776367,20.020000457763672,-0.8924999833106995
16.307355172467606,-0.582427978515625,-0.0056119998916983,-0.7222399711608887,21.36750030517578,21.0,0.6299999952316284
16.32751259542492,-0.5987759828567505,-0.0968680009245872,-0.7451759576797485,20.42250061035156,15.27750015258789,0.1400000005960464
16.347670018382235,-0.5768159627914429,-0.0458719991147518,-0.7346839904785156,27.895000457763672,4.427500247955322,-3.990000009536743
16.36782744133955,-0.5953599810600281,-0.1290760040283203,-0.7917799949645996,23.69499969482422,3.692500114440918,-6.929999828338623
16.387984864296865,-0.5314319729804993,-0.0358680002391338,-0.8220359683036804,33.880001068115234,3.0274999141693115,-15.34749984741211
16.40814228725418,-0.5199639797210693,0.038307998329401,-0.8076399564743042,27.737499237060547,2.9574999809265137,-15.907500267028809
16.428299710211494,-0.5358240008354187,-0.0885719954967498,-0.7583519816398621,8.837499618530273,-0.0525000020861625,-19.21500015258789
16.44845713316881,-0.5224040150642395,-0.1542080044746399,-0.7671359777450562,3.220000028610229,0.5950000286102295,-25.74250030517578
16.468614556126123,-0.5275279879570007,-0.1644559949636459,-0.8215479850769043,4.09499979019165,7.105000019073486,-32.095001220703125
16.488771979083438,-0.5343599915504456,-0.2066679894924163,-0.8630279898643494,7.735000133514404,9.327500343322754,-38.04500198364258
16.508929402040753,-0.5299679636955261,-0.210327997803688,-0.876691997051239,17.202499389648438,8.557499885559082,-40.72249984741211
16.529086824998068,-0.4958080053329468,-0.1634799987077713,-0.8857199549674988,24.587499618530277,6.054999828338623,-40.477500915527344
16.549244247955382,-0.5338720083236694,-0.2225279957056045,-0.891819953918457,24.290000915527344,4.304999828338623,-40.21500015258789
16.569401670912697,-0.5624200105667114,-0.2222839891910553,-0.9128040075302124,32.689998626708984,1.627500057220459,-40.11000061035156
16.58955909387001,-0.6092680096626282,-0.2652280032634735,-0.9169519543647766,38.0099983215332,-1.8725000619888303,-39.532501220703125
16.609716516827326,-0.5250880122184753,-0.1644559949636459,-0.8679080009460449,47.75749969482422,-7.087500095367432,-37.79999923706055
16.62987393978464,-0.5587599873542786,-0.2593719959259033,-0.8381400108337402,42.77000045776367,-5.827499866485596,-35.36750030517578
16.650031362741956,-0.5365560054779053,-0.280599981546402,-0.7668919563293457,45.81499862670898,-6.737500190734863,-42.26250076293945
16.67018878569927,-0.4960519969463348,-0.30621999502182,-0.7568879723548889,47.005001068115234,-6.212500095367432,-46.07749938964844
16.690346208656585,-0.4760439991950989,-0.3259840011596679,-0.7161399722099304,50.27750015258789,-5.110000133514404,-47.65250015258789
16.7105036316139,-0.4338319897651672,-0.3725879788398742,-0.668071985244751,45.53499984741211,-3.7100000381469727,-46.4275016784668
16.730661054571215,-0.3916199803352356,-0.4506679773330688,-0.6561160087585449,31.90250015258789,-6.195000171661377,-43.557498931884766
16.75081847752853,-0.4199239909648895,-0.5045920014381409,-0.7197999954223633,20.93000030517578,-16.4325008392334,-42.27999877929688
16.770975900485844,-0.4540839791297912,-0.3943039774894714,-0.7000359892845154,17.02750015258789,-27.107500076293945,-40.14500045776367
16.79113332344316,-0.5123999714851379,-0.3711239993572235,-0.6795399785041809,4.462500095367432,-35.40250015258789,-38.37749862670898
16.811290746400473,-0.4243159890174866,-0.4269999861717224,-0.6853960156440735,-4.427500247955322,-37.852500915527344,-38.709999084472656
16.831448169357788,-0.4213880002498626,-0.4831199944019317,-0.7012559771537781,-11.654999732971191,-29.1200008392334,-40.845001220703125
16.851605592315103,-0.3552640080451965,-0.5370439887046814,-0.7432239651679993,-16.520000457763672,-27.002500534057617,-45.16749954223633
16.871763015272418,-0.3540439903736114,-0.5272839665412903,-0.7527399659156799,-12.425000190734863,-2.870000123977661,-42.0525016784668
16.891920438229732,-0.3847880065441131,-0.5206959843635559,-0.7620120048522949,-10.605000495910645,5.949999809265137,-38.5
16.912077861187047,-0.4091880023479461,-0.5097159743309021,-0.7776280045509338,-6.510000228881836,11.585000038146973,-39.900001525878906
16.93223528414436,-0.4411519765853882,-0.4997119903564453,-0.7995879650115967,0.332500010728836,17.86750030517578,-39.462501525878906
16.952392707101676,-0.5045920014381409,-0.4499360024929046,-0.774944007396698,13.789999961853027,24.88500022888184,-38.744998931884766
16.97255013005899,-0.5514400005340576,-0.4555479884147644,-0.7888519763946533,16.905000686645508,25.357500076293945,-36.88999938964844
16.992707553016306,-0.6785640120506287,-0.4662839770317077,-0.7898280024528503,20.3700008392334,29.977500915527344,-30.20499992370605
17.01286497597362,-0.7512759566307068,-0.4818999767303467,-0.8632720112800598,31.184999465942383,20.684999465942383,-21.38500022888184
17.033022398930935,-0.6614840030670166,-0.4196799993515014,-0.761523962020874,45.02750015258789,14.699999809265137,-11.760000228881836
17.05317982188825,-0.5355799794197083,-0.4272439777851105,-0.6990599632263184,46.44499969482422,8.855000495910645,-1.2949999570846558
17.073337244845565,-0.4421280026435852,-0.5033720135688782,-0.6758800148963928,41.43999862670898,9.800000190734863,3.569999933242798
17.09349466780288,-0.452131986618042,-0.6104879975318909,-0.6775879859924316,36.977500915527344,7.367499828338623,4.829999923706055
17.113652090760194,-0.6439160108566284,-0.5690079927444458,-0.7183359861373901,51.90499877929688,-8.172499656677246,11.515000343322754
17.13380951371751,-0.750544011592865,-0.4435919821262359,-0.9076799750328064,66.29000091552734,-55.10750198364258,13.177499771118164
17.153966936674824,-0.6910079717636108,-0.2737680077552795,-0.6778320074081421,73.0625,-85.97750091552734,11.77750015258789
17.17412435963214,-0.3564839959144592,-0.2296039909124374,-0.6692919731140137,84.84000396728516,-52.79750061035156,24.325000762939453
17.194281782589453,-0.2305800020694732,-0.3511160016059875,-0.7581079602241516,59.48250198364258,-15.364999771118164,27.842500686645508
17.214439205546768,-0.3364759981632232,-0.4970279932022095,-0.5733999609947205,29.645000457763672,15.522500038146973,17.56999969482422
17.234596628504082,-0.4770199954509735,-0.4989799857139587,-0.570472002029419,27.96500015258789,39.34000015258789,11.042500495910645
17.254754051461397,-0.5075199604034424,-0.5902360081672668,-0.5109359622001648,27.614999771118164,48.720001220703125,10.02750015258789
17.274911474418712,-0.6051200032234192,-0.460671991109848,-0.6148799657821655,45.46500015258789,52.95500183105469,6.072500228881836
17.295068897376026,-0.667095959186554,-0.2664479911327362,-0.6002399921417236,58.380001068115234,47.459999084472656,-1.715000033378601
17.31522632033334,-0.6922279596328735,-0.2720600068569183,-0.5712040066719055,48.352500915527344,36.470001220703125,-5.442500114440918
17.335383743290656,-0.631227970123291,-0.3467240035533905,-0.5738880038261414,31.20249938964844,22.32999992370605,-4.550000190734863
17.35554116624797,-0.4631119966506958,-0.3603879809379577,-0.562175989151001,7.525000095367432,11.84749984741211,-1.0325000286102295
17.375698589205285,-0.2779159843921661,-0.3659999966621399,-0.6056079864501953,-14.857500076293944,15.34749984741211,2.9574999809265137
17.3958560121626,-0.2588839828968048,-0.5033720135688782,-0.667095959186554,-26.372499465942383,32.04249954223633,8.71500015258789
17.416013435119915,-0.3577039837837219,-0.6224439740180969,-0.5895040035247803,-13.49250030517578,35.33250045776367,7.017499923706055
17.43617085807723,-0.4123599827289581,-0.485071986913681,-0.4526199996471405,8.505000114440918,32.567501068115234,4.619999885559082
17.456328281034544,-0.4645760059356689,-0.553879976272583,-0.4631119966506958,-1.1375000476837158,30.537500381469727,2.4674999713897705
17.47648570399186,-0.5877959728240967,-0.6527000069618225,-0.5348479747772217,1.347499966621399,22.69750022888184,-4.304999828338623
17.496643126949174,-0.6936919689178467,-0.806663990020752,-0.5697399973869324,6.510000228881836,0.3499999940395355,-12.512499809265137
17.51680054990649,-0.6961320042610168,-0.8486319780349731,-0.6539199948310852,22.5049991607666,-20.649999618530277,-13.755000114440918
17.536957972863803,-0.6092680096626282,-0.8391159772872925,-0.7407839894294739,39.375,-36.17250061035156,-13.440000534057615
17.557115395821118,-0.465063989162445,-0.7354159951210022,-0.6936919689178467,46.63750076293945,-45.9900016784668,-18.1825008392334
17.577272818778432,-0.4172399938106537,-0.7766519784927368,-0.6361079812049866,34.9474983215332,-49.8224983215332,-24.09749984741211
17.597430241735747,-0.3860079944133758,-0.7812879681587219,-0.5233799815177917,20.3700008392334,-47.932498931884766,-29.26000022888184
17.617587664693062,-0.3740519881248474,-0.9108519554138184,-0.5675439834594727,8.399999618530273,-31.780000686645508,-31.815000534057617
17.637745087650377,-0.3852759897708893,-0.8710799813270569,-0.4704319834709167,16.729999542236328,-19.774999618530277,-35.13999938964844
17.65790251060769,-0.4357839822769165,-0.9730719923973083,-0.3235439956188202,19.46000099182129,-14.40250015258789,-41.334999084472656
17.678059933565006,-0.4655520021915436,-0.9637999534606934,-0.4443239867687225,40.51250076293945,-5.985000133514404,-47.407501220703125
17.69821735652232,-0.4450559914112091,-0.8437519669532776,-0.4894639849662781,56.34999847412109,-9.3100004196167,-54.3025016784668
17.718374779479635,-0.4570119976997375,-0.6866160035133362,-0.5341159701347351,56.70000076293945,-14.087499618530272,-52.56999969482422
17.73853220243695,-0.5080080032348633,-0.6927160024642944,-0.5123999714851379,48.98250198364258,-23.59000015258789,-45.290000915527344
17.758689625394265,-0.5197200179100037,-0.7510319948196411,-0.4016239941120147,44.15250015258789,-31.604999542236328,-40.61750030517578
17.77884704835158,-0.4394440054893493,-0.8718119859695435,-0.3406240046024322,36.75,-36.18999862670898,-38.185001373291016
17.799004471308894,-0.391864001750946,-0.9364719986915588,-0.3686839938163757,36.977500915527344,-35.50749969482422,-34.002498626708984
17.81916189426621,-0.3696599900722503,-0.9108519554138184,-0.3733199834823608,48.38750076293945,-32.47999954223633,-32.95249938964844
17.839319317223524,-0.3552640080451965,-0.8332599997520447,-0.3672199845314026,61.459999084472656,-24.2549991607666,-34.52750015258789
17.85947674018084,-0.456279993057251,-0.8720560073852539,-0.3086600005626678,63.087501525878906,-14.4375,-41.19499969482422
17.879634163138153,-0.4775079786777496,-0.8696159720420837,-0.2915799915790558,60.970001220703125,-15.172499656677246,-42.4375
17.899791586095468,-0.4494479894638061,-0.9184159636497498,-0.2996319830417633,52.185001373291016,-18.934999465942383,-40.372501373291016
17.919949009052782,-0.3862519860267639,-0.9135359525680542,-0.2149640023708343,44.25749969482422,-22.225000381469727,-37.93999862670898
17.940106432010097,-0.3533119857311249,-0.9440360069274902,-0.1842200011014938,40.52999877929688,-22.417499542236328,-34.212501525878906
17.960263854967412,-0.3411119878292084,-0.9891759753227234,-0.1381039917469024,38.622501373291016,-19.6875,-31.989999771118164
17.980421277924727,-0.3225679993629455,-1.0265079736709597,-0.0605119988322258,38.5525016784668,-10.010000228881836,-28.64750099182129
18.00057870088204,-0.2784039974212646,-1.0740879774093628,-0.0707599967718124,37.06499862670898,-9.11750030517578,-23.57250022888184
18.020736123839356,-0.2640079855918884,-1.1128839254379272,-0.1671399921178817,44.29249954223633,-2.432500123977661,-17.3075008392334
18.04089354679667,-0.293531984090805,-1.1309399604797363,-0.2400960028171539,55.22999954223633,5.96750020980835,-12.529999732971191
18.061050969753985,-0.3811279833316803,-1.0543240308761597,-0.2791360020637512,68.51249694824219,13.720000267028809,-9.11750030517578
