Time (seconds),acc_x,acc_y,acc_z,gyro_x,gyro_y,gyro_z
0.020289798802789104,0.1422519981861114,-0.8108119964599609,0.5804759860038757,1.1200000047683716,1.190000057220459,0.5774999856948853
0.04057959760557821,0.1417640000581741,-0.8108119964599609,0.5829159617424011,1.399999976158142,1.0850000381469729,0.4900000095367431
0.06086939640836731,0.1398119926452636,-0.8098359704017639,0.5848680138587952,1.8899999856948853,0.8575000166893005,0.3675000071525574
0.08115919521115642,0.1385920047760009,-0.8083719611167908,0.5868200063705444,2.0824999809265137,0.8400000333786011,0.4025000035762787
0.10144899401394553,0.1393239945173263,-0.8064199686050415,0.5860880017280579,2.0824999809265137,0.9449999928474426,0.3675000071525574
0.12173879281673464,0.1393239945173263,-0.8030039668083191,0.587552011013031,1.9774999618530276,0.8400000333786011,0.0525000020861625
0.14202859161952375,0.1442039906978607,-0.8027600049972534,0.5936520099639893,1.784999966621399,0.962499976158142,-0.1400000005960464
0.16231839042231286,0.1449359953403473,-0.8061760067939758,0.5936520099639893,1.399999976158142,1.1549999713897705,-0.1400000005960464
0.18260818922510197,0.1424959897994995,-0.8120319843292236,0.5892599821090698,1.2949999570846558,0.6825000047683716,-0.1749999970197677
0.20289798802789108,0.1393239945173263,-0.8210600018501282,0.5819399952888489,1.627500057220459,-0.2800000011920929,0.1050000041723251
0.2231877868306802,0.1359079927206039,-0.8203279972076416,0.5726680159568787,2.012500047683716,-0.9449999928474426,0.5600000023841858
0.2434775856334693,0.1339560002088546,-0.8139839768409729,0.5687639713287354,2.0999999046325684,-1.627500057220459,0.9975000023841858
0.2637673844362584,0.1312720030546188,-0.8100799918174744,0.5709599852561951,1.9424999952316284,-2.047499895095825,1.2949999570846558
0.2840571832390475,0.1327359974384308,-0.8073959946632385,0.5812079906463623,1.5225000381469729,-2.2225000858306885,1.5750000476837158
0.3043469820418366,0.1320039927959442,-0.8095920085906982,0.5902360081672668,0.9275000095367432,-2.0999999046325684,1.9600000381469729
0.32463678084462566,0.1293199956417083,-0.8071519732475281,0.5970680117607117,0.5249999761581421,-1.5750000476837158,1.9600000381469729
0.34492657964741474,0.1312720030546188,-0.8044679760932922,0.5958479642868042,0.3675000071525574,-0.7875000238418579,1.4350000619888306
0.3652163784502038,0.1334680020809173,-0.8054440021514893,0.5936520099639893,0.6825000047683716,-0.0175000000745058,0.5425000190734863
0.3855061772529929,0.1363959908485412,-0.8093479871749878,0.5904799699783325,1.3125,0.612500011920929,-0.3149999976158142
0.405795976055782,0.1354199945926666,-0.8088600039482117,0.587552011013031,1.8200000524520876,0.9275000095367432,-0.7524999976158142
0.4260857748585711,0.1341999918222427,-0.8098359704017639,0.5819399952888489,2.134999990463257,0.7875000238418579,-0.8224999904632568
0.44637557366136016,0.1366399973630905,-0.8064199686050415,0.5821840167045593,1.9774999618530276,0.2975000143051147,-0.6650000214576721
0.46666537246414924,0.1368840038776397,-0.8047119975090027,0.5821840167045593,1.3300000429153442,-0.2975000143051147,-0.4375
0.4869551712669383,0.1417640000581741,-0.8115440011024475,0.5858439803123474,0.262499988079071,-1.8200000524520876,-0.5950000286102295
0.5072449700697275,0.1439599990844726,-0.8139839768409729,0.5819399952888489,0.5774999856948853,-2.0999999046325684,-1.2074999809265137
0.5275347688725166,0.1471319943666458,-0.806663990020752,0.5812079906463623,1.662500023841858,-1.995000004768372,-2.1700000762939453
0.5478245676753057,0.1451800018548965,-0.8000760078430176,0.5895040035247803,1.680000066757202,-1.8025000095367432,-2.6600000858306885
0.5681143664780949,0.1407880038022995,-0.7995879650115967,0.5978000164031982,1.5049999952316284,-1.7675000429153442,-2.852499961853028
0.588404165280884,0.1393239945173263,-0.7934879660606384,0.6002399921417236,1.225000023841858,-1.7324999570846558,-2.572499990463257
0.6086939640836732,0.1442039906978607,-0.7917799949645996,0.5982879996299744,0.4900000095367431,-1.680000066757202,-2.5199999809265137
0.6289837628864623,0.1493279933929443,-0.7925119996070862,0.5943840146064758,0.1400000005960464,-1.3300000429153442,-3.132499933242798
0.6492735616892514,0.1507920026779174,-0.791047990322113,0.5956040024757385,-0.5425000190734863,-1.0499999523162842,-3.5
0.6695633604920406,0.1527439951896667,-0.791047990322113,0.5990200042724609,-1.837499976158142,-0.9275000095367432,-3.640000104904175
0.6898531592948297,0.1505479961633682,-0.7976359724998474,0.5946279764175415,-2.940000057220459,-0.7875000238418579,-3.7100000381469727
0.7101429580976188,0.153231993317604,-0.8027600049972534,0.5890159606933594,-3.1675000190734863,-0.6474999785423279,-3.762500047683716
0.730432756900408,0.152988001704216,-0.8073959946632385,0.5826719999313354,-2.5899999141693115,-0.4375,-3.920000076293945
0.7507225557031971,0.1564040035009384,-0.8093479871749878,0.5807200074195862,-1.680000066757202,-0.5950000286102295,-4.304999828338623
0.7710123545059863,0.158843994140625,-0.8078839778900146,0.5829159617424011,-1.5924999713897705,-0.9975000023841858,-4.21750020980835
0.7913021533087754,0.157379999756813,-0.8064199686050415,0.5814520120620728,-1.8025000095367432,-1.0499999523162842,-3.640000104904175
0.8115919521115645,0.1510359942913055,-0.8093479871749878,0.5821840167045593,-2.0824999809265137,-1.0850000381469729,-3.3600001335144043
0.8318817509143537,0.1466439962387085,-0.8137399554252625,0.5860880017280579,-2.6424999237060547,-1.5399999618530271,-3.220000028610229
0.8521715497171428,0.1517679989337921,-0.8147159814834595,0.5926759839057922,-3.289999961853028,-2.345000028610229,-2.992500066757202
0.872461348519932,0.1756799966096878,-0.7807999849319458,0.5841360092163086,-3.237499952316284,-3.0799999237060547,-2.2925000190734863
0.8927511473227211,0.1385920047760009,-0.8525359630584717,0.5924319624900818,-0.8224999904632568,-3.3600001335144043,1.0325000286102295
0.9130409461255102,0.1568920016288757,-0.8081279993057251,0.5843799710273743,-3.255000114440918,-3.569999933242798,-3.3949999809265137
0.9333307449282994,0.1634799987077713,-0.8056879639625549,0.5858439803123474,-3.815000057220459,-3.867500066757202,-3.289999961853028
0.9536205437310885,0.1659199893474578,-0.8069080114364624,0.5843799710273743,-4.392499923706055,-3.7799999713897705,-3.0975000858306885
0.9739103425338776,0.1637239903211593,-0.8100799918174744,0.5816959738731384,-4.847499847412109,-3.552500009536743,-2.765000104904175
0.9942001413366668,0.167383998632431,-0.80349200963974,0.578279972076416,-4.480000019073486,-3.2725000381469727,-2.799999952316284
1.0144899401394558,0.1705559939146042,-0.8012959957122803,0.5743759870529175,-4.637499809265137,-2.782500028610229,-3.237499952316284
1.0347797389422448,0.1722639948129654,-0.8071519732475281,0.5646159648895264,-4.760000228881836,-2.450000047683716,-3.569999933242798
1.0550695377450339,0.1766559928655624,-0.8061760067939758,0.5626639723777771,-4.182499885559082,-2.432500123977661,-3.954999923706055
1.075359336547823,0.1720200031995773,-0.8064199686050415,0.5626639723777771,-4.445000171661377,-2.572499990463257,-3.692500114440918
1.095649135350612,0.167383998632431,-0.8032479882240295,0.5641279816627502,-4.130000114440918,-4.077499866485596,-3.289999961853028
1.115938934153401,0.1739719957113266,-0.8047119975090027,0.5665680170059204,-3.552500009536743,-4.235000133514404,-3.150000095367432
1.13622873295619,0.1766559928655624,-0.8044679760932922,0.5692520141601562,-3.8324999809265137,-3.902499914169312,-2.9749999046325684
1.156518531758979,0.1839759945869445,-0.8049559593200684,0.5694959759712219,-3.622499942779541,-3.307500123977661,-3.202500104904175
1.176808330561768,0.1856839954853058,-0.8054440021514893,0.5665680170059204,-2.782500028610229,-2.9049999713897705,-3.849999904632568
1.197098129364557,0.1834879964590072,-0.8098359704017639,0.5685200095176697,-2.345000028610229,-2.887500047683716,-3.849999904632568
1.217387928167346,0.1930039972066879,-0.8120319843292236,0.570472002029419,-2.1700000762939453,-3.7100000381469727,-3.202500104904175
1.2376777269701351,0.1966639906167984,-0.8176440000534058,0.5675439834594727,-2.275000095367432,-4.130000114440918,-2.414999961853028
1.2579675257729241,0.1930039972066879,-0.8271600008010864,0.5633959770202637,-2.275000095367432,-4.042500019073486,-1.7324999570846558
1.2782573245757132,0.191783994436264,-0.8315519690513611,0.559004008769989,-1.75,-3.920000076293945,-1.662500023841858
1.2985471233785022,0.1969079971313476,-0.8234999775886536,0.5629079937934875,-1.4350000619888306,-3.692500114440918,-1.784999966621399
1.3188369221812912,0.2010560035705566,-0.8191080093383789,0.5594919919967651,-1.995000004768372,-2.6424999237060547,-1.9075000286102293
1.3391267209840803,0.2042279988527298,-0.8205719590187073,0.5626639723777771,-2.3975000381469727,-1.347499966621399,-2.1524999141693115
1.3594165197868693,0.2015440016984939,-0.8220359683036804,0.5665680170059204,-2.484999895095825,-0.6825000047683716,-2.2925000190734863
1.3797063185896583,0.2012999951839447,-0.8222799897193909,0.5668119788169861,-2.1875,-0.6299999952316284,-2.0999999046325684
1.3999961173924473,0.2025199979543686,-0.8205719590187073,0.5641279816627502,-1.8550000190734863,-0.7875000238418579,-1.5924999713897705
1.4202859161952364,0.2010560035705566,-0.8178879618644714,0.5609560012817383,-1.3125,-0.7350000143051147,-1.5225000381469729
1.4405757149980254,0.20032399892807,-0.8215479850769043,0.55485600233078,-0.7350000143051147,-0.9800000190734864,-1.680000066757202
1.4608655138008144,0.195932000875473,-0.8169119954109192,0.5470479726791382,-0.2100000083446502,-1.2424999475479126,-1.5750000476837158
1.4811553126036034,0.1922719925642013,-0.8127639889717102,0.5468040108680725,-0.2100000083446502,-1.2599999904632568,-1.3125
1.5014451114063925,0.1937360018491745,-0.8176440000534058,0.5482679605484009,-0.3149999976158142,-0.9800000190734864,-1.0850000381469729
1.5217349102091815,0.2015440016984939,-0.8156920075416565,0.5502200126647949,0.262499988079071,-0.5774999856948853,-0.7699999809265137
1.5420247090119705,0.2034959942102432,-0.8137399554252625,0.5516839623451233,0.5774999856948853,-0.1400000005960464,-0.3149999976158142
1.5623145078147596,0.2054480016231537,-0.8156920075416565,0.5514400005340576,0.262499988079071,-0.0175000000745058,0.1225000023841857
1.5826043066175486,0.2069119960069656,-0.8188639879226685,0.5492439866065979,-0.1050000041723251,-0.332500010728836,0.1749999970197677
1.6028941054203376,0.2066679894924163,-0.8230119943618774,0.5475360155105591,-0.1924999952316284,-0.6299999952316284,0.2975000143051147
1.6231839042231266,0.2064239978790283,-0.8254519701004028,0.5477799773216248,-0.0874999985098838,-0.8400000333786011,0.4724999964237213
1.6434737030259157,0.206179991364479,-0.8249639868736267,0.5482679605484009,-0.0700000002980232,-0.7875000238418579,0.4550000131130218
1.6637635018287047,0.2030079960823059,-0.8222799897193909,0.5480239987373352,0.0874999985098838,-0.6825000047683716,0.2800000011920929
1.6840533006314937,0.1964199990034103,-0.8242319822311401,0.5509520173072815,-0.4025000035762787,-1.8725000619888303,0.3149999976158142
1.7043430994342827,0.1998360008001327,-0.8254519701004028,0.5468040108680725,-0.3499999940395355,-2.047499895095825,0.4550000131130218
1.7246328982370718,0.2025199979543686,-0.8259400129318237,0.5453400015830994,-0.2975000143051147,-1.8550000190734863,0.612500011920929
1.7449226970398608,0.2015440016984939,-0.8242319822311401,0.5446079969406128,-0.2100000083446502,-1.8200000524520876,0.6825000047683716
1.7652124958426498,0.2027639895677566,-0.8193519711494446,0.5472919940948486,-0.2450000047683715,-1.8899999856948853,0.5249999761581421
1.7855022946454389,0.2005679905414581,-0.8198399543762207,0.5499759912490845,-0.4724999964237213,-2.0824999809265137,0.332500010728836
1.8057920934482279,0.1983719915151596,-0.822767972946167,0.5536360144615173,-0.5074999928474426,-2.0999999046325684,0.3675000071525574
1.826081892251017,0.2020319998264312,-0.8208159804344177,0.5560759902000427,-0.4025000035762787,-1.9774999618530276,0.2800000011920929
1.846371691053806,0.205935999751091,-0.8208159804344177,0.5546119809150696,-0.1749999970197677,-1.627500057220459,-0.0175000000745058
1.866661489856595,0.2086199969053268,-0.8217920064926147,0.5492439866065979,-0.1400000005960464,-1.0674999952316284,-0.2975000143051147
1.886951288659384,0.2069119960069656,-0.8217920064926147,0.5460720062255859,-0.0525000020861625,-0.5950000286102295,-0.3675000071525574
1.907241087462173,0.2034959942102432,-0.8220359683036804,0.5450959801673889,0.0350000001490116,-0.332500010728836,-0.3499999940395355
1.927530886264962,0.206179991364479,-0.819595992565155,0.5433880090713501,0.1574999988079071,-0.0700000002980232,-0.4550000131130218
1.947820685067751,0.2093520015478134,-0.8208159804344177,0.541923999786377,-0.0175000000745058,0.262499988079071,-0.4375
1.96811048387054,0.2069119960069656,-0.8225240111351013,0.5426560044288635,-0.2450000047683715,0.5074999928474426,-0.3675000071525574
1.9884002826733291,0.2034959942102432,-0.8220359683036804,0.545583963394165,-0.2975000143051147,0.4375,-0.3149999976158142
2.0086900814761184,0.2039839923381805,-0.822767972946167,0.5465599894523621,-0.4200000166893005,0.3499999940395355,-0.2100000083446502
2.0289798802789076,0.2069119960069656,-0.8247199654579163,0.545583963394165,-0.3499999940395355,0.3149999976158142,-0.1225000023841857
2.049269679081697,0.2081319987773895,-0.8247199654579163,0.5431439876556396,-0.0525000020861625,0.262499988079071,-0.1574999988079071
2.069559477884486,0.2069119960069656,-0.8232559561729431,0.5458279848098755,0.0700000002980232,0.2275000065565109,-0.1749999970197677
2.0898492766872754,0.2054480016231537,-0.8244760036468506,0.5470479726791382,-0.0175000000745058,0.1050000041723251,-0.1749999970197677
2.1101390754900646,0.2044719904661178,-0.822767972946167,0.5441200137138367,0.2100000083446502,-0.0175000000745058,-0.1050000041723251
2.130428874292854,0.2044719904661178,-0.8220359683036804,0.5416799783706665,0.5600000023841858,-0.2100000083446502,-0.1050000041723251
2.150718673095643,0.205935999751091,-0.8210600018501282,0.541923999786377,0.3675000071525574,-0.2975000143051147,-0.0700000002980232
2.1710084718984324,0.206179991364479,-0.8217920064926147,0.5438759922981262,-0.1225000023841857,-0.5425000190734863,0.1050000041723251
2.1912982707012216,0.2042279988527298,-0.8264279961585999,0.5443639755249023,-0.5425000190734863,-0.7524999976158142,0.3149999976158142
2.211588069504011,0.2032520025968551,-0.8266719579696655,0.5453400015830994,-0.3675000071525574,-0.8224999904632568,0.3849999904632568
2.2318778683068,0.2030079960823059,-0.823743999004364,0.5472919940948486,-0.0874999985098838,-0.8050000071525574,0.3849999904632568
2.2521676671095894,0.2020319998264312,-0.8217920064926147,0.5504639744758606,-0.2100000083446502,-0.8575000166893005,0.3675000071525574
2.2724574659123786,0.2034959942102432,-0.822767972946167,0.5511959791183472,-0.332500010728836,-0.9800000190734864,0.2100000083446502
2.292747264715168,0.2037400007247924,-0.8244760036468506,0.5468040108680725,0.1574999988079071,-0.3849999904632568,-0.1400000005960464
2.313037063517957,0.2015440016984939,-0.8230119943618774,0.5441200137138367,0.332500010728836,-0.262499988079071,-0.1400000005960464
2.3333268623207464,0.2027639895677566,-0.8213039636611938,0.5421679615974426,0.2800000011920929,-0.2450000047683715,0.0350000001490116
2.3536166611235356,0.2008119970560073,-0.8281359672546387,0.5458279848098755,-0.1574999988079071,0.1050000041723251,-0.0874999985098838
2.373906459926325,0.2025199979543686,-0.8291119933128357,0.5436319708824158,0.1225000023841857,0.2975000143051147,-0.4724999964237213
2.394196258729114,0.2056919932365417,-0.823743999004364,0.5428999662399292,0.332500010728836,0.332500010728836,-0.6474999785423279
2.4144860575319034,0.2034959942102432,-0.8208159804344177,0.5470479726791382,0.0350000001490116,0.6474999785423279,-0.6474999785423279
2.4347758563346926,0.2020319998264312,-0.8230119943618774,0.5509520173072815,-0.262499988079071,0.612500011920929,-0.8224999904632568
2.455065655137482,0.2030079960823059,-0.8247199654579163,0.5509520173072815,-0.2275000065565109,0.2800000011920929,-0.9275000095367432
2.475355453940271,0.2032520025968551,-0.8247199654579163,0.5411919951438904,0.7699999809265137,-0.3149999976158142,-0.7175000309944153
2.4956452527430604,0.2034959942102432,-0.8200839757919312,0.5411919951438904,0.8224999904632568,-0.5074999928474426,-0.6825000047683716
2.5159350515458496,0.205935999751091,-0.8222799897193909,0.5426560044288635,0.3499999940395355,-0.3849999904632568,-0.6825000047683716
2.536224850348639,0.205935999751091,-0.8256959915161133,0.5436319708824158,0.4724999964237213,-0.2450000047683715,-0.6650000214576721
2.556514649151428,0.2037400007247924,-0.8266719579696655,0.5450959801673889,1.1024999618530271,-0.1574999988079071,-0.6299999952316284
2.5768044479542174,0.2049599885940551,-0.8213039636611938,0.5487560033798218,1.5750000476837158,-0.1574999988079071,-0.5950000286102295
2.5970942467570066,0.2088640034198761,-0.8181319832801819,0.549731969833374,1.2599999904632568,0.0700000002980232,-0.4375
2.617384045559796,0.2091079950332641,-0.8169119954109192,0.5463159680366516,0.8924999833106995,0.0700000002980232,-0.4200000166893005
2.637673844362585,0.2095959931612014,-0.8173999786376953,0.5446079969406128,0.4375,-0.1050000041723251,-0.2800000011920929
2.6579636431653744,0.2088640034198761,-0.8217920064926147,0.5446079969406128,0.0525000020861625,-0.0700000002980232,-0.1225000023841857
2.6782534419681636,0.2071560025215149,-0.827892005443573,0.5441200137138367,0.2450000047683715,0.0700000002980232,-0.3149999976158142
2.698543240770953,0.2056919932365417,-0.8213039636611938,0.5441200137138367,0.8575000166893005,0.2450000047683715,-0.5950000286102295
2.718833039573742,0.2042279988527298,-0.822767972946167,0.5450959801673889,0.4550000131130218,0.3499999940395355,-0.5425000190734863
2.7391228383765314,0.2056919932365417,-0.8242319822311401,0.5448520183563232,0.4375,0.3149999976158142,-0.7175000309944153
2.7594126371793206,0.2078879922628402,-0.8244760036468506,0.5433880090713501,0.6825000047683716,0.5074999928474426,-0.9275000095367432
2.77970243598211,0.2086199969053268,-0.8232559561729431,0.5431439876556396,0.5774999856948853,0.7175000309944153,-0.9800000190734864
2.799992234784899,0.2064239978790283,-0.8225240111351013,0.5431439876556396,0.262499988079071,0.7350000143051147,-0.9449999928474426
2.8202820335876884,0.2073999941349029,-0.8220359683036804,0.5428999662399292,0.3675000071525574,0.612500011920929,-0.9800000190734864
2.8405718323904776,0.2066679894924163,-0.8225240111351013,0.5441200137138367,0.3675000071525574,0.4724999964237213,-0.7350000143051147
2.860861631193267,0.2047159969806671,-0.822767972946167,0.5431439876556396,0.332500010728836,0.3149999976158142,-0.7175000309944153
2.881151429996056,0.2071560025215149,-0.8244760036468506,0.5443639755249023,0.5249999761581421,0.0874999985098838,-0.8400000333786011
2.9014412287988454,0.2076440006494522,-0.8259400129318237,0.5465599894523621,0.7175000309944153,0.0350000001490116,-0.8050000071525574
2.9217310276016346,0.2091079950332641,-0.822767972946167,0.5487560033798218,0.9275000095367432,0.0525000020861625,-0.6650000214576721
2.942020826404424,0.2091079950332641,-0.8205719590187073,0.5489999651908875,1.1024999618530271,0.0525000020861625,-0.5774999856948853
2.962310625207213,0.2086199969053268,-0.8200839757919312,0.550707995891571,1.1549999713897705,0.0350000001490116,-0.6474999785423279
2.9826004240100024,0.2105719894170761,-0.8169119954109192,0.553879976272583,1.0499999523162842,0.0874999985098838,-0.5774999856948853
3.0028902228127916,0.2122799903154373,-0.8171559572219849,0.5541239976882935,0.8050000071525574,0.1225000023841857,-0.5425000190734863
3.023180021615581,0.2117919921875,-0.8198399543762207,0.5536360144615173,0.6825000047683716,0.262499988079071,-0.5774999856948853
3.04346982041837,0.2081319987773895,-0.8203279972076416,0.5514400005340576,0.7699999809265137,0.5425000190734863,-0.6474999785423279
3.0637596192211594,0.2088640034198761,-0.8166679739952087,0.5529040098190308,0.9975000023841858,0.7350000143051147,-0.7699999809265137
3.0840494180239486,0.2144759893417358,-0.8117879629135132,0.5560759902000427,0.8050000071525574,1.2074999809265137,-1.1549999713897705
3.104339216826738,0.2164279967546463,-0.802515983581543,0.5585159659385681,0.0700000002980232,2.1524999141693115,-1.6449999809265137
3.124629015629527,0.2120359987020492,-0.8064199686050415,0.5575399994850159,-0.8924999833106995,3.132499933242798,-2.1700000762939453
3.1449188144323164,0.210327997803688,-0.8132519721984863,0.5526599884033203,-1.1549999713897705,3.3424999713897705,-2.2049999237060547
3.1652086132351056,0.2117919921875,-0.8171559572219849,0.545583963394165,-0.5950000286102295,3.115000009536743,-2.0299999713897705
3.185498412037895,0.210327997803688,-0.8181319832801819,0.5402159690856934,0.0350000001490116,3.289999961853028,-1.8200000524520876
3.205788210840684,0.2088640034198761,-0.815447986125946,0.5385079979896545,0.5950000286102295,3.622499942779541,-1.6974999904632568
3.2260780096434734,0.2039839923381805,-0.8159359693527222,0.5375319719314575,0.962499976158142,3.4825000762939453,-1.8025000095367432
3.2463678084462626,0.2064239978790283,-0.8193519711494446,0.5426560044288635,0.875,2.922499895095825,-1.75
3.266657607249052,0.2125239968299865,-0.8252080082893372,0.5450959801673889,0.875,2.502500057220459,-1.4350000619888306
3.286947406051841,0.2125239968299865,-0.8288679718971252,0.5397279858589172,1.3300000429153442,1.9075000286102293,-0.9449999928474426
3.3072372048546304,0.2088640034198761,-0.8281359672546387,0.5399720072746277,1.6974999904632568,1.0499999523162842,-0.4550000131130218
3.3275270036574196,0.2086199969053268,-0.8305760025978088,0.5421679615974426,1.680000066757202,0.0700000002980232,0.0525000020861625
3.347816802460209,0.2093520015478134,-0.8293559551239014,0.5411919951438904,1.9600000381469729,-0.4200000166893005,0.3849999904632568
3.368106601262998,0.2088640034198761,-0.8256959915161133,0.5397279858589172,2.0999999046325684,-0.4900000095367431,0.5950000286102295
3.3883964000657874,0.2073999941349029,-0.8208159804344177,0.5468040108680725,1.9774999618530276,-0.6825000047683716,0.8575000166893005
3.4086861988685766,0.2064239978790283,-0.8169119954109192,0.5570520162582397,1.4175000190734863,-0.8224999904632568,0.875
3.428975997671366,0.2100839912891388,-0.8200839757919312,0.5602239966392517,0.6299999952316284,-0.6825000047683716,0.6299999952316284
3.449265796474155,0.2117919921875,-0.8164240121841431,0.5514400005340576,1.1200000047683716,-0.5600000023841858,0.5425000190734863
3.4695555952769443,0.2091079950332641,-0.8142279982566833,0.5524159669876099,0.9100000262260436,-0.4724999964237213,0.3849999904632568
3.4898453940797336,0.2027639895677566,-0.8191080093383789,0.549731969833374,0.2975000143051147,-0.2275000065565109,0.3675000071525574
3.510135192882523,0.2032520025968551,-0.8252080082893372,0.5480239987373352,0.6299999952316284,-0.2450000047683715,0.1050000041723251
3.530424991685312,0.2169159948825836,-0.8239879608154297,0.5582720041275024,1.399999976158142,0.9100000262260436,0.1749999970197677
3.5507147904881013,0.2354599982500076,-0.8315519690513611,0.5597360134124756,1.2074999809265137,3.849999904632568,0.4900000095367431
3.5710045892908906,0.2359479963779449,-0.8469240069389343,0.582427978515625,-0.962499976158142,5.704999923706055,1.5750000476837158
3.59129438809368,0.2305800020694732,-0.8818159699440002,0.6168320178985596,-5.53000020980835,5.425000190734863,5.127500057220459
3.611584186896469,0.2066679894924163,-0.9303719997406006,0.6378160119056702,-8.27750015258789,4.672500133514404,9.904999732971191
3.6318739856992583,0.1942239999771118,-0.974291980266571,0.6575799584388733,-8.539999961853027,3.5174999237060547,13.755000114440918
3.6521637845020476,0.2149640023708343,-0.9923479557037354,0.6548959612846375,-6.824999809265137,2.450000047683716,15.925000190734863
3.672453583304837,0.2147199958562851,-0.975268006324768,0.6258599758148193,-4.497499942779541,2.257499933242798,16.327499389648438
3.692743382107626,0.2086199969053268,-0.9472079873085022,0.5936520099639893,-2.7300000190734863,1.1725000143051147,15.34749984741211
3.7130331809104153,0.201787993311882,-0.9218319654464722,0.5807200074195862,-3.325000047683716,-0.4900000095367431,14.350000381469728
3.7333229797132046,0.1851959973573684,-0.9032880067825316,0.5768159627914429,-5.477499961853027,-2.134999990463257,14.40250015258789
3.753612778515994,0.1678719967603683,-0.8862079977989197,0.56632399559021,-7.210000038146973,-3.2725000381469727,15.452500343322754
3.773902577318783,0.1651879996061325,-0.8679080009460449,0.5541239976882935,-8.154999732971191,-3.220000028610229,16.450000762939453
3.7941923761215723,0.1581119894981384,-0.8557080030441284,0.5385079979896545,-8.539999961853027,-3.0975000858306885,16.8174991607666
3.8144821749243616,0.1510359942913055,-0.8344799876213074,0.5245999693870544,-7.927500247955322,-3.867500066757202,16.292499542236328
3.834771973727151,0.1517679989337921,-0.8208159804344177,0.5123999714851379,-8.399999618530273,-4.900000095367432,15.78499984741211
3.85506177252994,0.1522559970617294,-0.818619966506958,0.5055679678916931,-9.22249984741211,-5.110000133514404,15.364999771118164
3.8753515713327293,0.1354199945926666,-0.814471960067749,0.4941000044345855,-9.59000015258789,-5.599999904632568,14.577500343322754
3.8956413701355186,0.1190719977021217,-0.8120319843292236,0.4831199944019317,-10.202500343322754,-6.5625,14.03499984741211
3.915931168938308,0.1110199987888336,-0.8049559593200684,0.4628680050373077,-10.149999618530272,-7.559999942779541,14.210000038146973
3.936220967741097,0.1039439961314201,-0.7932440042495728,0.440663993358612,-8.399999618530273,-8.680000305175781,14.052499771118164
3.9565107665438863,0.0941839963197708,-0.7617679834365845,0.4318799972534179,-5.477499961853027,-9.712499618530272,13.702500343322754
3.9768005653466756,0.1054079979658126,-0.7237039804458618,0.4352959990501404,-4.550000190734863,-9.887499809265137,12.862500190734863
3.997090364149465,0.1268799901008606,-0.6944239735603333,0.4416399896144867,-3.307500123977661,-8.329999923706055,11.217499732971191
4.017380162952254,0.1415199935436248,-0.6600199937820435,0.4409079849720001,-1.5049999952316284,-5.84499979019165,9.380000114440918
4.037669961755043,0.1381039917469024,-0.6397680044174194,0.4304159879684448,0.4200000166893005,-4.269999980926514,6.650000095367432
4.057959760557832,0.1351760029792785,-0.6424520015716553,0.4506679773330688,2.572499990463257,-3.6050000190734863,3.009999990463257
4.078249559360621,0.1312720030546188,-0.6712439656257629,0.4621360003948211,2.5899999141693115,-2.5199999809265137,3.0625
4.098539358163411,0.1293199956417083,-0.6997919678688049,0.4616479873657226,3.3600001335144043,-1.399999976158142,3.762500047683716
4.1188291569662,0.1139479950070381,-0.7166280150413513,0.4584759771823883,5.179999828338623,-0.7524999976158142,3.325000047683716
4.139118955768989,0.1017479971051216,-0.7395640015602112,0.4645760059356689,7.105000019073486,-0.9275000095367432,0.6825000047683716
4.159408754571778,0.1149239987134933,-0.765671968460083,0.4894639849662781,8.102499961853027,-0.9800000190734864,-1.0149999856948853
4.179698553374568,0.1327359974384308,-0.790071964263916,0.5141080021858215,8.925000190734863,-0.612500011920929,-2.012500047683716
4.199988352177357,0.1361519992351532,-0.819595992565155,0.5216720104217529,10.220000267028809,-0.5074999928474426,-2.5899999141693115
4.220278150980146,0.1378600001335144,-0.835211992263794,0.5255759954452515,10.989999771118164,-0.9449999928474426,-2.747499942779541
4.240567949782935,0.1383479982614517,-0.851315975189209,0.5311880111694336,10.850000381469728,-0.5950000286102295,-3.990000009536743
4.260857748585725,0.1412760019302368,-0.8754720091819763,0.5348479747772217,11.427499771118164,-0.2100000083446502,-5.09250020980835
4.281147547388514,0.1461559981107711,-0.8730319738388062,0.5472919940948486,12.5649995803833,0.2275000065565109,-5.740000247955322
4.301437346191303,0.1446920037269592,-0.8679080009460449,0.5524159669876099,12.512499809265137,0.3499999940395355,-7.472499847412109
4.321727144994092,0.1483519971370697,-0.8786439895629883,0.5558319687843323,11.462499618530272,-0.1924999952316284,-8.154999732971191
4.342016943796882,0.1476199924945831,-0.8866959810256958,0.5709599852561951,9.204999923706056,-0.7875000238418579,-7.752500057220459
4.362306742599671,0.1566479951143264,-0.9025560021400452,0.5870639681816101,6.965000152587891,-0.7350000143051147,-7.507500171661377
4.38259654140246,0.167383998632431,-0.9293959736824036,0.5938959717750549,6.335000038146973,0.4025000035762787,-7.28000020980835
4.402886340205249,0.1747040003538131,-0.946720004081726,0.59853196144104,5.355000019073486,1.5575000047683716,-7.227499961853027
4.423176139008039,0.1590880006551742,-0.9694119691848756,0.5914559960365295,4.130000114440918,2.065000057220459,-7.297500133514404
4.443465937810828,0.1512800008058548,-0.9821000099182128,0.5978000164031982,3.745000123977661,2.0299999713897705,-6.702499866485596
4.463755736613617,0.1571359932422638,-0.973315954208374,0.6261039972305298,1.9424999952316284,2.712500095367432,-5.022500038146973
4.484045535416406,0.1659199893474578,-0.969655990600586,0.6261039972305298,0.612500011920929,3.447499990463257,-4.724999904632568
4.504335334219196,0.1615279912948608,-0.9747799634933472,0.6090239882469177,-0.1924999952316284,3.815000057220459,-3.692500114440918
4.524625133021985,0.1510359942913055,-0.97599995136261,0.59853196144104,-2.677500009536743,3.884999990463257,-1.9600000381469729
4.544914931824774,0.1373720020055771,-0.9755119681358336,0.5807200074195862,-5.039999961853027,2.502500057220459,-0.5074999928474426
4.565204730627563,0.1307840049266815,-0.962336003780365,0.5758399963378906,-6.894999980926514,0.699999988079071,1.2424999475479126
4.585494529430353,0.1437159925699234,-0.9472079873085022,0.5719360113143921,-9.327500343322754,-0.5249999761581421,2.3975000381469727
4.605784328233142,0.1512800008058548,-0.9237839579582214,0.5570520162582397,-10.255000114440918,-1.5750000476837158,2.9574999809265137
4.626074127035931,0.1439599990844726,-0.9023119807243348,0.5468040108680725,-9.712499618530272,-2.0999999046325684,3.0625
4.64636392583872,0.1600639969110489,-0.8776679635047913,0.5546119809150696,-8.3125,-1.8200000524520876,3.0450000762939453
4.66665372464151,0.1681160032749176,-0.8505839705467224,0.5402159690856934,-10.0625,0.5425000190734863,5.792500019073486
4.686943523444299,0.1322479993104934,-0.8381400108337402,0.5041040182113647,-10.0625,0.1050000041723251,6.615000247955322
4.707233322247088,0.1129719987511634,-0.8210600018501282,0.4899519979953766,-9.449999809265137,-0.6825000047683716,7.490000247955322
4.727523121049877,0.1171199977397918,-0.8005639910697937,0.4967840015888214,-8.102499961853027,-1.277500033378601,7.420000076293945
4.747812919852667,0.130295991897583,-0.7956839799880981,0.4987359941005707,-6.860000133514404,-1.2424999475479126,6.387499809265137
4.768102718655456,0.138835996389389,-0.7934879660606384,0.493611991405487,-6.335000038146973,-0.6299999952316284,6.072500228881836
4.788392517458245,0.1317600011825561,-0.7812879681587219,0.4782399833202362,-6.5625,-0.262499988079071,5.862500190734863
4.808682316261034,0.1190719977021217,-0.7661600112915039,0.4655520021915436,-7.122499942779541,-0.9275000095367432,5.179999828338623
4.828972115063824,0.114436000585556,-0.7542039752006531,0.468968003988266,-6.492499828338623,-1.8550000190734863,4.375
4.849261913866613,0.1158999949693679,-0.7402960062026978,0.4782399833202362,-4.340000152587891,-1.9424999952316284,3.3949999809265137
4.869551712669402,0.118827998638153,-0.7395640015602112,0.4760439991950989,-2.1875,-1.6100000143051147,2.6424999237060547
4.889841511472191,0.1183400005102157,-0.7461519837379456,0.4740919768810272,-1.0149999856948853,-1.9075000286102293,2.2049999237060547
4.910131310274981,0.1146799996495246,-0.7515199780464172,0.4801920056343078,0.1225000023841857,-2.852499961853028,0.8575000166893005
4.93042110907777,0.1254159957170486,-0.7566440105438232,0.4872680008411407,1.4874999523162842,-2.7300000190734863,-0.612500011920929
4.950710907880559,0.1466439962387085,-0.7612800002098083,0.4960519969463348,3.884999990463257,-1.2949999570846558,-1.4700000286102295
4.971000706683348,0.1568920016288757,-0.7685999870300293,0.5011759996414185,6.037499904632568,0.9449999928474426,-2.327500104904175
4.991290505486138,0.1446920037269592,-0.7805559635162354,0.4992239773273468,6.667500019073486,2.327500104904175,-2.9574999809265137
5.011580304288927,0.1251720041036605,-0.7995879650115967,0.4984920024871826,6.019999980926514,2.047499895095825,-3.552500009536743
5.031870103091716,0.1219999939203262,-0.8254519701004028,0.5058119893074036,6.264999866485596,1.5049999952316284,-4.550000190734863
5.052159901894505,0.1251720041036605,-0.8422879576683044,0.5197200179100037,7.052500247955322,1.9424999952316284,-4.322500228881836
5.072449700697295,0.1383479982614517,-0.8464359641075134,0.5328959822654724,7.017499923706055,3.430000066757202,-2.940000057220459
5.092739499500084,0.138835996389389,-0.8559519648551941,0.5348479747772217,7.804999828338623,3.674999952316284,-1.924999952316284
5.113029298302873,0.1498159915208816,-0.8688839673995972,0.5372880101203918,8.329999923706055,3.3600001335144043,-1.8899999856948853
5.133319097105662,0.1542080044746399,-0.8742519617080688,0.5341159701347351,8.855000495910645,3.0450000762939453,-2.694999933242798
5.153608895908452,0.1503039896488189,-0.8730319738388062,0.5458279848098755,9.274999618530272,2.484999895095825,-3.307500123977661
5.173898694711241,0.1490840017795562,-0.871567964553833,0.5592479705810547,9.520000457763672,1.9075000286102293,-3.4649999141693115
5.19418849351403,0.1468880027532577,-0.8742519617080688,0.5619319677352905,8.960000038146973,1.627500057220459,-3.5
5.214478292316819,0.142984002828598,-0.8874279856681824,0.5543680191040039,7.997499942779541,1.2599999904632568,-3.3949999809265137
5.234768091119609,0.1371279954910278,-0.8974319696426392,0.5524159669876099,6.965000152587891,0.2800000011920929,-2.765000104904175
5.255057889922398,0.1361519992351532,-0.8940159678459167,0.559004008769989,5.494999885559082,-0.5600000023841858,-1.995000004768372
5.275347688725187,0.1493279933929443,-0.8698599934577942,0.570472002029419,2.047499895095825,-1.3125,-2.782500028610229
5.295637487527976,0.1564040035009384,-0.8661999702453613,0.5692520141601562,0.9100000262260436,-1.2074999809265137,-4.130000114440918
5.315927286330766,0.1576239913702011,-0.8676639795303345,0.5665680170059204,1.2074999809265137,-1.225000023841858,-5.074999809265137
5.336217085133555,0.1478639990091323,-0.867419958114624,0.5641279816627502,1.5049999952316284,-1.715000033378601,-4.567500114440918
5.356506883936344,0.1410319954156875,-0.8632720112800598,0.5575399994850159,1.2599999904632568,-2.2925000190734863,-3.0975000858306885
5.376796682739133,0.1442039906978607,-0.855463981628418,0.5411919951438904,1.9424999952316284,-2.1524999141693115,-2.0299999713897705
5.397086481541923,0.147376000881195,-0.8478999733924866,0.530456006526947,2.484999895095825,-1.2074999809265137,-1.4175000190734863
5.417376280344712,0.1468880027532577,-0.8366760015487671,0.5299679636955261,1.9600000381469729,-0.6299999952316284,-0.9275000095367432
5.437666079147501,0.1400559991598129,-0.8325279951095581,0.5311880111694336,1.2599999904632568,-0.8924999833106995,-0.6650000214576721
5.45795587795029,0.1366399973630905,-0.8317959904670715,0.530456006526947,0.9100000262260436,-1.2424999475479126,-0.3849999904632568
5.47824567675308,0.1393239945173263,-0.831063985824585,0.5289919972419739,1.0325000286102295,-1.627500057220459,-0.0350000001490116
5.498535475555869,0.1420079916715622,-0.8281359672546387,0.5314319729804993,1.1024999618530271,-1.5225000381469729,0.3675000071525574
5.518825274358658,0.1437159925699234,-0.8293559551239014,0.5363119840621948,1.0850000381469729,-1.3825000524520874,0.4724999964237213
5.539115073161447,0.148839995265007,-0.8303319811820984,0.5387519598007202,1.6100000143051147,-1.2074999809265137,0.2800000011920929
5.559404871964237,0.1515239924192428,-0.8283799886703491,0.5446079969406128,2.134999990463257,-1.0325000286102295,-0.2275000065565109
5.579694670767026,0.1551840007305145,-0.8271600008010864,0.5509520173072815,2.0299999713897705,-0.6825000047683716,-0.699999988079071
5.599984469569815,0.1539639979600906,-0.831063985824585,0.553879976272583,2.309999942779541,0.1225000023841857,-1.1549999713897705
5.620274268372604,0.1559159904718399,-0.8303319811820984,0.5536360144615173,3.202500104904175,1.1024999618530271,-1.5225000381469729
5.640564067175394,0.1586000025272369,-0.8300879597663879,0.5563200116157532,3.972500085830689,1.995000004768372,-1.75
5.660853865978183,0.1593319922685623,-0.8327719569206238,0.5558319687843323,4.09499979019165,2.799999952316284,-1.8200000524520876
5.681143664780972,0.1586000025272369,-0.8393599987030029,0.5541239976882935,4.427500247955322,3.202500104904175,-1.8899999856948853
5.701433463583761,0.1564040035009384,-0.8386279940605164,0.5536360144615173,4.795000076293945,3.150000095367432,-1.995000004768372
5.721723262386551,0.1546960026025772,-0.8315519690513611,0.5563200116157532,4.585000038146973,2.8350000381469727,-2.240000009536743
5.74201306118934,0.1561599969863891,-0.831063985824585,0.5553439855575562,3.762500047683716,2.9749999046325684,-2.2225000858306885
5.762302859992129,0.1615279912948608,-0.8349679708480835,0.5577839612960815,3.325000047683716,3.0625,-2.0299999713897705
5.782592658794918,0.1607960015535354,-0.8332599997520447,0.5570520162582397,3.6050000190734863,3.0975000858306885,-1.6100000143051147
5.802882457597708,0.1549399942159652,-0.826915979385376,0.5524159669876099,4.409999847412109,2.747499942779541,-1.190000057220459
5.823172256400497,0.1493279933929443,-0.823743999004364,0.5485119819641113,4.235000133514404,2.309999942779541,-0.5774999856948853
5.843462055203286,0.152988001704216,-0.8252080082893372,0.5553439855575562,2.992500066757202,1.837499976158142,0.1225000023841857
5.863751854006075,0.1554279923439026,-0.8281359672546387,0.5616880059242249,2.0299999713897705,1.6100000143051147,0.4900000095367431
5.884041652808865,0.1471319943666458,-0.8298439979553223,0.5563200116157532,3.0799999237060547,1.7675000429153442,0.9100000262260436
5.904331451611654,0.1476199924945831,-0.8252080082893372,0.5607119798660278,3.5174999237060547,1.8725000619888303,1.2424999475479126
5.924621250414443,0.1485960036516189,-0.8232559561729431,0.5643720030784607,3.325000047683716,1.9424999952316284,1.4700000286102295
5.944911049217232,0.1444479972124099,-0.8256959915161133,0.56632399559021,3.4124999046325684,1.924999952316284,1.4874999523162842
5.965200848020022,0.1427399963140487,-0.826915979385376,0.5633959770202637,3.954999923706055,1.9424999952316284,1.6974999904632568
5.985490646822811,0.1451800018548965,-0.8249639868736267,0.5641279816627502,4.427500247955322,2.240000009536743,2.0299999713897705
6.0057804456256,0.1478639990091323,-0.822767972946167,0.5692520141601562,4.147500038146973,2.677500009536743,2.4674999713897705
6.026070244428389,0.1495719999074936,-0.8222799897193909,0.5712040066719055,4.21750020980835,2.799999952316284,2.5374999046325684
6.046360043231179,0.1512800008058548,-0.8217920064926147,0.5680319666862488,4.672500133514404,1.8025000095367432,2.572499990463257
6.066649842033968,0.1434720009565353,-0.8203279972076416,0.5677880048751831,5.215000152587891,0.6299999952316284,2.555000066757202
6.086939640836757,0.1349319964647293,-0.8164240121841431,0.5738880038261414,5.267499923706055,-0.2275000065565109,2.380000114440918
6.107229439639546,0.130295991897583,-0.8139839768409729,0.5809639692306519,5.267499923706055,-0.2975000143051147,1.9424999952316284
6.127519238442336,0.1312720030546188,-0.8115440011024475,0.5868200063705444,4.829999923706055,0.2100000083446502,1.5750000476837158
6.147809037245125,0.1363959908485412,-0.8103240132331848,0.5868200063705444,4.480000019073486,0.5600000023841858,1.1375000476837158
6.168098836047914,0.1341999918222427,-0.8117879629135132,0.583404004573822,4.21750020980835,0.5425000190734863,0.962499976158142
6.188388634850703,0.1339560002088546,-0.8112999796867371,0.5838919878005981,3.745000123977661,0.2450000047683715,1.225000023841858
6.208678433653493,0.1341999918222427,-0.8105679750442505,0.5863319635391235,3.3600001335144043,-0.332500010728836,1.7675000429153442
6.228968232456282,0.1317600011825561,-0.8134959936141968,0.5848680138587952,3.184999942779541,-0.1225000023841857,2.1524999141693115
6.249258031259071,0.1241960003972053,-0.8112999796867371,0.5882840156555176,3.1675000190734863,0.4200000166893005,2.0299999713897705
6.26954783006186,0.1229759976267814,-0.8044679760932922,0.5877959728240967,3.237499952316284,0.0874999985098838,1.7324999570846558
6.28983762886465,0.1268799901008606,-0.8010519742965698,0.5877959728240967,3.1675000190734863,-0.7350000143051147,1.5225000381469729
6.310127427667439,0.1334680020809173,-0.7990999817848206,0.5902360081672668,3.009999990463257,-1.2074999809265137,1.3825000524520874
6.330417226470228,0.1363959908485412,-0.8000760078430176,0.5936520099639893,2.5199999809265137,-0.9100000262260436,1.4874999523162842
6.350707025273017,0.134443998336792,-0.801539957523346,0.5953599810600281,1.924999952316284,-0.5600000023841858,1.8899999856948853
6.370996824075807,0.13298000395298,-0.8030039668083191,0.5919439792633057,1.4524999856948853,-0.7350000143051147,1.9424999952316284
6.391286622878596,0.1293199956417083,-0.8056879639625549,0.5936520099639893,1.190000057220459,-0.9449999928474426,1.9075000286102293
6.411576421681385,0.1298079937696457,-0.8091039657592773,0.5924319624900818,1.399999976158142,-0.9800000190734864,1.5924999713897705
6.431866220484174,0.1280999928712844,-0.8047119975090027,0.590723991394043,1.8200000524520876,-0.8575000166893005,1.1024999618530271
6.452156019286964,0.1246839985251426,-0.8012959957122803,0.59170001745224,1.8725000619888303,-0.4025000035762787,0.5249999761581421
6.472445818089753,0.1322479993104934,-0.8051999807357788,0.5946279764175415,0.8924999833106995,0.3849999904632568,-0.1225000023841857
6.492735616892542,0.1371279954910278,-0.8039799928665161,0.5934079885482788,0.7875000238418579,0.4550000131130218,-0.3499999940395355
6.513025415695331,0.1359079927206039,-0.8030039668083191,0.5902360081672668,0.6825000047683716,0.3149999976158142,-0.699999988079071
6.533315214498121,0.1368840038776397,-0.8042240142822266,0.5882840156555176,0.612500011920929,0.4375,-0.9100000262260436
6.55360501330091,0.1359079927206039,-0.8039799928665161,0.5882840156555176,0.4724999964237213,0.7524999976158142,-1.0850000381469729
6.573894812103699,0.1390800029039383,-0.8027600049972534,0.589747965335846,0.3849999904632568,1.0149999856948853,-1.1375000476837158
6.594184610906488,0.1376159936189651,-0.8010519742965698,0.5921880006790161,0.1400000005960464,0.962499976158142,-1.1024999618530271
6.614474409709278,0.1381039917469024,-0.8012959957122803,0.5899919867515564,-0.262499988079071,0.6650000214576721,-0.9275000095367432
6.634764208512067,0.140299990773201,-0.8017839789390564,0.5868200063705444,-0.4375,0.7175000309944153,-0.7699999809265137
6.655054007314856,0.1354199945926666,-0.8047119975090027,0.5860880017280579,-0.4900000095367431,1.1375000476837158,-0.8400000333786011
6.675343806117645,0.1334680020809173,-0.8073959946632385,0.5863319635391235,0.0700000002980232,1.2424999475479126,-0.9449999928474426
6.695633604920435,0.1354199945926666,-0.8088600039482117,0.589747965335846,0.6299999952316284,1.190000057220459,-0.8924999833106995
6.715923403723224,0.1366399973630905,-0.8142279982566833,0.587552011013031,0.6474999785423279,1.3825000524520874,-0.5074999928474426
6.736213202526013,0.13468798995018,-0.8098359704017639,0.5841360092163086,0.9975000023841858,1.4175000190734863,-0.5249999761581421
6.756503001328802,0.1307840049266815,-0.8100799918174744,0.5851119756698608,0.8224999904632568,1.225000023841858,-0.699999988079071
6.776792800131592,0.1290760040283203,-0.8105679750442505,0.5934079885482788,0.2450000047683715,1.2074999809265137,-0.612500011920929
6.797082598934381,0.1261480003595352,-0.8152039647102356,0.5929200053215027,-0.2275000065565109,1.2074999809265137,-0.4900000095367431
6.81737239773717,0.1232199966907501,-0.8203279972076416,0.5877959728240967,0.1574999988079071,1.2074999809265137,-0.4550000131130218
6.837662196539959,0.1268799901008606,-0.8276479840278625,0.5938959717750549,0.5074999928474426,1.8025000095367432,0.2450000047683715
6.857951995342749,0.1256600022315979,-0.8410679697990417,0.6200039982795715,-0.2975000143051147,2.3975000381469727,1.5575000047683716
6.878241794145538,0.1327359974384308,-0.880840003490448,0.6468439698219299,-1.837499976158142,3.255000114440918,3.3949999809265137
6.898531592948327,0.1324919909238815,-0.9433040022850036,0.6539199948310852,-2.2925000190734863,4.514999866485596,5.320000171661377
6.918821391751116,0.1161440014839172,-0.995519995689392,0.6541640162467957,-1.4700000286102295,5.425000190734863,7.244999885559082
6.939111190553906,0.1207799986004829,-1.034559965133667,0.6727079749107361,-2.852499961853028,6.5625,9.1875
6.959400989356695,0.1139479950070381,-1.0682319402694702,0.693448007106781,-5.110000133514404,8.032500267028809,7.664999961853027
6.979690788159484,0.0924759954214096,-1.0901919603347778,0.6927160024642944,-6.264999866485596,8.802499771118164,3.692500114440918
6.999980586962273,0.0814960002899169,-1.0901919603347778,0.6978399753570557,-7.822500228881836,8.417500495910645,1.4175000190734863
7.020270385765063,0.0739319995045661,-1.0855560302734375,0.6941800117492676,-10.324999809265137,6.929999828338623,2.940000057220459
7.040560184567852,0.0663679987192154,-1.065303921699524,0.6822239756584167,-13.369999885559082,5.897500038146973,6.492499828338623
7.060849983370641,0.0734440013766288,-1.0230920314788818,0.6705119609832764,-15.907500267028809,5.547500133514404,9.22249984741211
7.08113978217343,0.0834480002522468,-0.9650200009346008,0.6039000153541565,-23.34499931335449,9.887499809265137,13.842499732971191
7.10142958097622,0.0688079968094825,-0.9413520097732544,0.5816959738731384,-25.637500762939453,12.25,16.55500030517578
7.121719379779009,0.0780799984931945,-0.9264679551124572,0.5912119746208191,-28.21000099182129,13.63249969482422,18.707500457763672
7.142009178581798,0.085887998342514,-0.9088999629020692,0.5853559970855713,-31.97249984741211,15.34749984741211,19.84499931335449
7.162298977384587,0.0863759964704513,-0.9013359546661376,0.5680319666862488,-35.33250045776367,17.815000534057617,19.61750030517578
7.182588776187377,0.065880000591278,-0.9020679593086244,0.5448520183563232,-36.435001373291016,19.75749969482422,18.1825008392334
7.202878574990166,0.0495319999754428,-0.9223200082778932,0.5238679647445679,-34.6150016784668,19.89750099182129,16.852500915527344
7.223168373792955,0.047580000013113,-0.9389119744300842,0.5065439939498901,-32.39250183105469,20.3174991607666,15.890000343322754
7.243458172595744,0.0453839972615242,-0.93012797832489,0.4967840015888214,-30.25749969482422,20.825000762939453,14.927499771118164
7.263747971398534,0.0485559999942779,-0.9018239974975586,0.4982479810714721,-26.670000076293945,20.877500534057617,14.524999618530272
7.284037770201323,0.0265959985554218,-0.8866959810256958,0.4865359961986542,-24.51749992370605,18.95249938964844,14.90999984741211
7.304327569004112,0.0087839998304843,-0.8818159699440002,0.4736039936542511,-25.40999984741211,16.625,16.239999771118164
7.324617367806901,0.0187879987061023,-0.8974319696426392,0.4860479831695556,-28.087499618530277,14.752500534057615,17.43000030517578
7.344907166609691,0.0119559997692704,-0.9235399961471558,0.4643319845199585,-28.21000099182129,14.210000038146973,17.0625
7.36519696541248,0.0185439996421337,-0.9398880004882812,0.4540839791297912,-27.8075008392334,11.77750015258789,17.850000381469727
7.385486764215269,0.0060999998822808,-0.9523319602012634,0.4545719921588897,-24.65749931335449,7.822500228881836,17.53499984741211
7.405776563018058,-0.0141519997268915,-0.949404001235962,0.4638440012931824,-22.26000022888184,3.447499990463257,17.167499542236328
7.426066361820848,-0.0085399998351931,-0.966484010219574,0.4716520011425018,-21.82250022888184,-0.262499988079071,17.045000076293945
7.446356160623637,-0.0134199997410178,-0.9659959673881532,0.4706760048866272,-18.76000022888184,-3.150000095367432,14.980000495910645
7.466645959426426,-0.0251320004463195,-0.977463960647583,0.4509119987487793,-16.362499237060547,-6.387499809265137,13.19499969482422
7.486935758229215,-0.0439199991524219,-0.9891759753227234,0.4128479957580566,-13.457500457763672,-9.852499961853027,11.462499618530272
7.507225557032005,-0.0729559957981109,-1.0145519971847534,0.399427980184555,-9.100000381469728,-13.317500114440918,9.852499961853027
7.527515355834794,-0.0756400004029274,-0.9972279667854308,0.4116279780864715,-3.2725000381469727,-16.485000610351562,9.012499809265137
7.547805154637583,-0.0805199965834617,-0.9923479557037354,0.4104079902172088,-0.9275000095367432,-19.145000457763672,9.730000495910645
7.568094953440372,-0.1078479960560798,-0.9735599756240844,0.3906439840793609,1.9424999952316284,-23.082500457763672,11.392499923706056
7.588384752243162,-0.1268799901008606,-0.9550159573554992,0.3708800077438354,3.640000104904175,-28.524999618530277,13.352499961853027
7.608674551045951,-0.1327359974384308,-0.9364719986915588,0.3537999987602234,2.012500047683716,-33.127498626708984,15.539999961853027
7.62896434984874,-0.1363959908485412,-0.9108519554138184,0.3359879851341247,-1.837499976158142,-38.34249877929688,18.34000015258789
7.649254148651529,-0.1339560002088546,-0.8749839663505554,0.3150039911270141,-6.177500247955322,-45.5525016784668,22.71500015258789
7.6695439474543186,-0.1183400005102157,-0.819595992565155,0.2925559878349304,-8.890000343322754,-52.51750183105469,28.052499771118164
7.689833746257108,-0.0814960002899169,-0.6361079812049866,0.3306199908256531,-11.30500030517578,-62.247501373291016,36.435001373291016
7.710123545059897,-0.0944279953837394,-0.517524003982544,0.2681559920310974,-12.18000030517578,-67.7074966430664,36.61000061035156
7.730413343862686,-0.1129719987511634,-0.4553039968013763,0.2352159917354583,-21.03499984741211,-78.78500366210938,38.23749923706055
7.7507031426654756,-0.1276119947433471,-0.419435977935791,0.3267160058021545,-31.815000534057617,-76.33499908447266,47.477500915527344
7.770992941468265,-0.0756400004029274,-0.3916199803352356,0.3823480010032654,-35.26250076293945,-66.95500183105469,49.560001373291016
7.791282740271054,-0.0307439994066953,-0.4438360035419464,0.3945479989051819,-35.06999969482422,-63.192501068115234,44.60750198364258
7.811572539073843,-0.0397720001637935,-0.5509520173072815,0.3596560060977936,-28.489999771118164,-62.369998931884766,35.61249923706055
7.8318623378766326,-0.0463600009679794,-0.6097559928894043,0.3025600016117096,-19.040000915527344,-61.932498931884766,20.71999931335449
7.852152136679422,-0.0763719975948333,-0.6961320042610168,0.2635200023651123,-18.497499465942383,-65.43250274658203,11.567500114440918
7.872441935482211,-0.0763719975948333,-0.7722600102424622,0.2713280022144317,-26.354999542236328,-73.44750213623047,8.172499656677246
7.892731734285,-0.0568519979715347,-0.8110559582710266,0.3040239810943603,-45.0099983215332,-83.86000061035156,7.507500171661377
7.9130215330877895,-0.1088239997625351,-0.9391559958457948,0.3359879851341247,-50.85499954223633,-86.94000244140625,12.355000495910645
7.933311331890579,-0.1341999918222427,-0.9342759847640992,0.3115879893302917,-55.58000183105469,-87.95500183105469,9.869999885559082
7.953601130693368,-0.1468880027532577,-0.9901520013809204,0.2598600089550018,-50.470001220703125,-84.48999786376953,1.6974999904632568
7.973890929496157,-0.1268799901008606,-0.9552599787712096,0.2510759830474853,-42.71749877929688,-82.21500396728516,-3.8324999809265137
7.9941807282989465,-0.1320039927959442,-0.9596520066261292,0.2320439964532852,-46.497501373291016,-79.16999816894531,-3.0625
8.014470527101736,-0.1910519897937774,-0.9852719902992249,0.1903200000524521,-48.9474983215332,-75.25,1.2599999904632568
8.034760325904525,-0.2713280022144317,-1.035048007965088,0.1503039896488189,-46.72499847412109,-73.8324966430664,5.40749979019165
8.055050124707314,-0.322079986333847,-1.0777479410171509,0.1515239924192428,-39.91749954223633,-76.2125015258789,8.260000228881836
8.075339923510104,-0.2949959933757782,-1.1004400253295898,0.1966639906167984,-28.122499465942383,-78.73249816894531,6.667500019073486
8.095629722312893,-0.196175992488861,-1.0252879858016968,0.1756799966096878,-10.779999732971191,-78.38249969482422,2.2925000190734863
8.115919521115682,-0.1368840038776397,-0.9513559937477112,0.1361519992351532,4.65500020980835,-74.32250213623047,-2.817500114440918
8.136209319918471,-0.0846679955720901,-0.9486719965934752,0.1088239997625351,10.324999809265137,-72.66000366210938,-5.179999828338623
8.15649911872126,-0.0570959970355033,-0.9508680105209352,0.1254159957170486,9.59000015258789,-71.15499877929688,-5.267499923706055
8.17678891752405,-0.0629519969224929,-0.9755119681358336,0.1639679968357086,7.175000190734863,-67.41000366210938,-4.182499885559082
8.197078716326839,-0.0461159981787204,-1.0491999387741089,0.2125239968299865,6.054999828338623,-64.6624984741211,-1.347499966621399
8.217368515129628,-0.0239119995385408,-1.0684759616851809,0.2813319861888885,10.272500038146973,-61.442501068115234,3.990000009536743
8.237658313932418,-0.0207399986684322,-1.0757960081100464,0.3069519996643066,15.085000038146973,-56.962501525878906,13.369999885559082
8.257948112735207,-0.1146799996495246,-1.0628639459609983,0.2642520070075989,21.6825008392334,-57.68000030517578,22.08500099182129
8.278237911537996,-0.1693359911441803,-0.9437919855117798,0.2942639887332916,29.837499618530277,-65.11750030517578,22.08500099182129
8.298527710340785,-0.0817399993538856,-0.9501360058784484,0.3501400053501129,28.752500534057617,-65.02999877929688,25.725000381469727
8.318817509143575,-0.0663679987192154,-0.9652639627456664,0.2827959954738617,29.24250030517578,-69.125,29.417499542236328
8.339107307946364,0.0002439999952912,-0.901091992855072,0.249123990535736,26.6875,-75.56500244140625,27.825000762939453
8.359397106749153,0.0556319989264011,-0.9589200019836426,0.185928001999855,15.24250030517578,-77.45500183105469,20.790000915527344
8.379686905551942,0.100283995270729,-0.9821000099182128,0.1461559981107711,7.157500267028809,-81.51499938964844,11.987500190734863
8.399976704354732,0.0922319963574409,-1.0233359336853027,0.1495719999074936,0.2100000083446502,-88.09500122070312,6.545000076293945
8.42026650315752,0.0771040022373199,-1.0601799488067627,0.1781200021505355,-0.3149999976158142,-96.18000030517578,3.430000066757202
8.44055630196031,0.0727119967341423,-1.050176024436951,0.1981279999017715,7.402500152587891,-101.62249755859376,-0.0350000001490116
8.4608461007631,0.0978439971804618,-1.0133320093154907,0.2171600013971328,14.647500038146973,-106.97750091552734,-4.8125
8.481135899565889,0.13298000395298,-0.9393999576568604,0.2320439964532852,17.202499389648438,-114.76499938964844,-9.100000381469728
8.501425698368678,0.1686040014028549,-0.9176839590072632,0.210327997803688,12.774999618530272,-122.3249969482422,-9.432499885559082
8.521715497171467,0.1954440027475357,-0.924515962600708,0.1600639969110489,5.425000190734863,-125.40499877929688,-7.122499942779541
8.542005295974256,0.1815359890460968,-0.8661999702453613,0.1498159915208816,-0.6650000214576721,-125.0374984741211,-3.115000009536743
8.562295094777046,0.1593319922685623,-0.8569279909133911,0.1651879996061325,-8.557499885559082,-126.0,4.235000133514404
8.582584893579835,0.1451800018548965,-0.8317959904670715,0.2120359987020492,-14.524999618530272,-127.19000244140624,11.480000495910645
8.602874692382624,0.1305399984121322,-0.9142679572105408,0.2515639960765838,-22.207500457763672,-129.44749450683594,18.252500534057617
8.623164491185413,0.1176079958677291,-0.9289079904556274,0.2652280032634735,-22.732500076293945,-131.82749938964844,19.0575008392334
8.643454289988203,0.1505479961633682,-0.9813680052757264,0.2705959975719452,-20.70249938964844,-133.07000732421875,17.762500762939453
8.663744088790992,0.2220399975776672,-0.9823439717292786,0.2644959986209869,-13.579999923706056,-129.0800018310547,15.662500381469728
8.684033887593781,0.2332639992237091,-0.9740479588508606,0.2320439964532852,-9.99250030517578,-124.19750213623048,15.154999732971191
8.70432368639657,0.2332639992237091,-0.9474520087242126,0.2071560025215149,-8.802499771118164,-123.79499816894533,13.282500267028809
8.72461348519936,0.2420479953289032,-0.8942599892616272,0.1986159980297088,-10.220000267028809,-123.16500091552734,13.737500190734863
8.744903284002149,0.2317999899387359,-0.8622959852218628,0.2120359987020492,-13.09000015258789,-119.12249755859376,17.3075008392334
8.765193082804938,0.2147199958562851,-0.8632720112800598,0.2564440071582794,-12.057499885559082,-113.24250030517578,21.21000099182129
8.785482881607727,0.1998360008001327,-0.8679080009460449,0.2835280001163482,-8.557499885559082,-107.0999984741211,26.670000076293945
8.805772680410517,0.1986159980297088,-0.8661999702453613,0.2771840095520019,-6.264999866485596,-102.62000274658205,33.005001068115234
8.826062479213306,0.2335079908370971,-0.9088999629020692,0.2603479921817779,-8.819999694824219,-100.0824966430664,38.20249938964844
8.846352278016095,0.2405840009450912,-0.9860039949417114,0.2630319893360138,-11.077500343322754,-98.55999755859376,39.532501220703125
8.866642076818884,0.2115480005741119,-1.0396839380264282,0.3042680025100708,-6.474999904632568,-98.29750061035156,35.0
8.886931875621674,0.2032520025968551,-1.014796018600464,0.3745400011539459,-1.9424999952316284,-96.18000030517578,25.462499618530277
8.907221674424463,0.2884079813957214,-0.93232399225235,0.3742959797382355,-4.96999979019165,-91.0,11.654999732971191
8.927511473227252,0.3359879851341247,-0.958675980567932,0.2869440019130707,-4.707499980926514,-86.57250213623047,12.022500038146973
8.947801272030041,0.313539981842041,-1.1114200353622437,0.2095959931612014,2.817500114440918,-79.01249694824219,14.489999771118164
8.96809107083283,0.2618120014667511,-1.16485595703125,0.3372080028057098,16.274999618530273,-72.625,13.614999771118164
8.98838086963562,0.280599981546402,-1.3795759677886963,0.2457079887390136,19.950000762939453,-69.8949966430664,4.900000095367432
9.008670668438409,0.1969079971313476,-1.5486680269241333,0.2581520080566406,31.46500015258789,-71.15499877929688,-15.190000534057615
9.028960467241198,0.218868002295494,-1.4513119459152222,0.099551998078823,49.73500061035156,-71.75,-35.875
9.049250266043988,0.3037799894809723,-1.2263439893722534,-0.2967039942741394,68.18000030517578,-54.372501373291016,-36.45249938964844
9.069540064846777,0.181779995560646,-0.961359977722168,-0.2471719980239868,90.17749786376952,-60.375,-19.89750099182129
9.089829863649566,0.095891997218132,-0.7393199801445007,-0.0524599999189376,102.84750366210938,-84.84000396728516,5.932499885559082
9.110119662452355,-0.0100039998069405,-0.7083320021629333,0.2186239957809448,94.6750030517578,-78.13749694824219,30.012500762939453
9.130409461255145,-0.2198439985513687,-0.9969840049743652,0.4401759803295135,67.25250244140625,-54.040000915527344,47.16249847412109
9.150699260057934,-0.1786080002784729,-1.2636759281158447,0.4706760048866272,52.79750061035156,-45.255001068115234,42.9275016784668
9.170989058860723,-0.0058559998869895,-1.1741279363632202,0.2744999825954437,79.41500091552734,-31.07999992370605,26.600000381469727
9.191278857663512,0.171775996685028,-0.9347639679908752,0.1715319901704788,94.29000091552734,-17.7450008392334,25.09499931335449
9.211568656466302,0.3074399828910827,-0.7793359756469727,0.1610399931669235,78.06749725341797,-9.537500381469728,38.290000915527344
9.23185845526909,0.2998760044574737,-0.7634760141372681,0.1793399900197982,50.24250030517578,-0.875,53.970001220703125
9.25214825407188,0.2271640002727508,-0.7585960030555725,0.330375999212265,32.84749984741211,6.755000114440918,58.46749877929688
9.27243805287467,0.0414799973368644,-0.7844600081443787,0.4396879971027374,17.7450008392334,14.612500190734863,55.09000015258789
9.292727851677459,-0.0580720007419586,-0.779092013835907,0.4474959969520569,11.34000015258789,19.9325008392334,50.6974983215332
9.313017650480248,-0.0961359962821006,-0.7581079602241516,0.4040639996528625,9.449999809265137,26.162500381469727,50.57500076293945
9.333307449283037,-0.104432001709938,-0.7883639931678772,0.3525799810886383,9.22249984741211,37.397499084472656,49.85750198364258
9.353597248085826,-0.0873520001769065,-0.668071985244751,0.3423320055007934,18.112499237060547,38.290000915527344,42.4900016784668
9.373887046888616,-0.0558759979903698,-0.5577839612960815,0.3606320023536682,13.387499809265137,28.38500022888184,32.095001220703125
9.394176845691405,-0.0844239965081214,-0.5853559970855713,0.3411119878292084,-6.789999961853027,16.940000534057617,24.79750061035156
9.414466644494194,-0.0936959981918335,-0.6058520078659058,0.3742959797382355,-21.1924991607666,11.164999961853027,17.6924991607666
9.434756443296983,-0.038307998329401,-0.5638839602470398,0.4355399906635284,-28.59499931335449,13.282500267028809,7.105000019073486
9.455046242099773,0.0265959985554218,-0.59853196144104,0.4797039926052093,-38.20249938964844,16.502500534057617,-1.0325000286102295
9.475336040902562,0.042943999171257,-0.8022719621658325,0.476531982421875,-48.52750015258789,17.657499313354492,-5.704999923706055
9.495625839705351,0.0527039989829063,-1.1450920104980469,0.4374919831752777,-49.31499862670898,18.864999771118164,-10.202500343322754
9.51591563850814,0.0331839993596077,-1.2439119815826416,0.5607119798660278,11.899999618530272,22.46999931335449,-14.420000076293944
9.53620543731093,-0.052947998046875,-0.918172001838684,0.6004840135574341,20.982500076293945,29.505001068115234,3.237499952316284
9.556495236113719,-0.1590880006551742,-0.903775990009308,0.6631919741630554,10.0625,42.31499862670898,11.8125
9.576785034916508,-0.244731992483139,-1.1287440061569214,0.7202879786491394,11.00749969482422,52.272499084472656,1.8899999856948853
9.597074833719297,-0.2832840085029602,-1.39519202709198,0.8008080124855042,22.32999992370605,43.942501068115234,-3.377500057220459
9.617364632522087,-0.4157759845256805,-1.6196719408035278,0.6497719883918762,36.13750076293945,26.63500022888184,-2.0824999809265137
9.637654431324876,-0.4179719984531402,-1.3249199390411377,0.4367599785327911,58.88750076293945,3.762500047683716,-1.6974999904632568
9.657944230127665,-0.3652679920196533,-0.8805959820747375,0.3955239951610565,64.6449966430664,-5.302500247955322,-13.037500381469728
9.678234028930454,-0.2703520059585571,-0.6461119651794434,0.3106119930744171,54.86249923706055,2.0824999809265137,-27.05500030517578
9.698523827733244,-0.0514839999377727,-0.5787680149078369,0.1015039980411529,35.665000915527344,1.190000057220459,-43.400001525878906
9.718813626536033,-0.0200079996138811,-0.8437519669532776,-0.0724679976701736,10.885000228881836,-4.392499923706055,-38.37749862670898
9.739103425338822,-0.1285879909992218,-1.0855560302734375,0.0968680009245872,4.550000190734863,-16.274999618530273,-18.95249938964844
9.759393224141611,-0.2613239884376526,-1.16485595703125,0.2708399891853332,-1.190000057220459,-49.8224983215332,-8.6274995803833
9.7796830229444,-0.1481079906225204,-1.0560319423675537,0.4289519786834717,4.65500020980835,-81.8125,-24.02750015258789
9.79997282174719,0.0078079998493194,-0.8566839694976807,0.4906840026378631,7.034999847412109,-80.91999816894531,-41.43999862670898
9.820262620549979,0.0141519997268915,-0.7805559635162354,0.3106119930744171,-6.387499809265137,-66.62249755859375,-48.98250198364258
9.840552419352768,0.100283995270729,-0.7502999901771545,0.1978839933872223,-20.05500030517578,-62.6150016784668,-49.71749877929688
9.860842218155558,0.1659199893474578,-0.7258999943733215,0.1576239913702011,-32.11249923706055,-61.79249954223633,-38.39500045776367
9.881132016958347,0.2095959931612014,-0.7112599611282349,0.1542080044746399,-42.36750030517578,-65.90499877929688,-22.75
9.901421815761136,0.2278959900140762,-0.76664799451828,0.201787993311882,-53.532501220703125,-68.11000061035156,-8.417500495910645
9.921711614563925,0.2515639960765838,-0.7959280014038086,0.2464399933815002,-57.872501373291016,-63.13999938964844,-2.345000028610229
9.942001413366715,0.2093520015478134,-0.8410679697990417,0.2996319830417633,-55.96500015258789,-51.22249984741211,0.3849999904632568
9.962291212169504,0.1627479940652847,-0.8762039542198181,0.3484320044517517,-46.584999084472656,-43.33000183105469,2.5199999809265137
9.982581010972293,0.1534759998321533,-0.8400920033454895,0.3650240004062652,-32.91749954223633,-39.91749954223633,4.672500133514404
10.002870809775082,0.1722639948129654,-0.7893399596214294,0.358924001455307,-25.112499237060547,-37.747501373291016,11.357500076293944
10.023160608577871,0.2100839912891388,-0.7307800054550171,0.3513599932193756,-25.357500076293945,-36.102500915527344,20.982500076293945
10.04345040738066,0.2213079929351806,-0.6785640120506287,0.3476999998092651,-29.364999771118164,-33.407501220703125,31.07999992370605
10.06374020618345,0.2610799968242645,-0.6861279606819153,0.2701079845428467,-34.29999923706055,-28.962499618530277,41.63249969482422
10.08403000498624,0.2544919848442077,-0.8349679708480835,0.2178919911384582,-38.744998931884766,-22.38249969482422,50.76750183105469
10.104319803789028,0.1800719946622848,-1.0318759679794312,0.2195999920368194,-39.44499969482422,-19.6875,51.45000076293945
10.124609602591818,0.0834480002522468,-1.159243941307068,0.3076840043067932,-31.27250099182129,-11.462499618530272,19.98500061035156
10.144899401394607,0.1268799901008606,-1.1101999282836914,0.322079986333847,-36.04999923706055,-10.43000030517578,-2.4674999713897705
10.165189200197396,0.2222839891910553,-1.0269960165023804,0.3276920020580292,-37.76499938964844,-13.282500267028809,-13.912500381469728
10.185478999000185,0.3074399828910827,-1.1241079568862915,0.2759639918804168,-32.88249969482422,-16.83500099182129,-12.005000114440918
10.205768797802975,0.3111000061035156,-1.250499963760376,0.3952800035476684,-13.15999984741211,-20.07250022888184,-6.440000057220459
10.226058596605764,0.3559959828853607,-1.360543966293335,0.3972319960594177,5.880000114440918,-21.40250015258789,-10.412500381469728
10.246348395408553,0.3069519996643066,-1.4147119522094729,0.3257399797439575,18.40999984741211,-22.78499984741211,-24.780000686645508
10.266638194211342,0.2210640013217926,-1.4034879207611084,0.2808440029621124,19.337499618530277,-28.192501068115234,-37.782501220703125
10.286927993014132,0.2881639897823334,-1.3163800239562988,0.0692960023880004,29.17250061035156,-24.377500534057617,-45.81499862670898
10.307217791816921,0.2186239957809448,-1.1184959411621094,-0.1812919974327087,52.02750015258789,-14.03499984741211,-39.79500198364258
10.32750759061971,0.0824719965457916,-0.8964560031890869,-0.1617719978094101,69.44000244140625,-26.950000762939453,-19.530000686645508
10.3477973894225,-0.0292799994349479,-0.7722600102424622,0.0075639998540282,72.1875,-41.05500030517578,-0.4900000095367431
10.368087188225289,-0.185928001999855,-0.8952359557151794,0.3003639876842499,58.432498931884766,-22.0674991607666,10.779999732971191
10.388376987028078,-0.1627479940652847,-1.2436679601669312,0.5123999714851379,38.97249984741211,-4.409999847412109,19.75749969482422
10.408666785830867,0.0258639995008707,-1.2783160209655762,0.4455440044403076,56.40250015258789,12.267499923706056,19.63500022888184
10.428956584633656,0.095891997218132,-1.0167479515075684,0.249123990535736,92.4000015258789,35.349998474121094,17.13249969482422
10.449246383436446,0.148839995265007,-0.7878760099411011,0.1544519960880279,94.63999938964844,35.84000015258789,17.114999771118164
10.469536182239235,0.1729959994554519,-0.6397680044174194,0.1449359953403473,71.80249786376953,31.167499542236328,24.20249938964844
10.489825981042024,0.1229759976267814,-0.6317160129547119,0.1771439909934997,37.06499862670898,33.95000076293945,33.6875
10.510115779844813,0.0651479959487915,-0.7444440126419067,0.3008520007133484,10.149999618530272,35.9275016784668,37.36249923706055
10.530405578647603,-0.0214719995856285,-0.7825079560279846,0.4355399906635284,1.0850000381469729,38.41249847412109,35.8224983215332
10.550695377450392,-0.1293199956417083,-0.8169119954109192,0.4604279994964599,-1.4700000286102295,39.51499938964844,35.787498474121094
10.570985176253181,-0.2266760021448135,-0.76664799451828,0.4445679783821106,3.7799999713897705,39.900001525878906,36.29500198364258
10.59127497505597,-0.2274079918861389,-0.7229719758033752,0.4138239920139313,6.177500247955322,36.92499923706055,36.62749862670898
10.61156477385876,-0.1671399921178817,-0.6265919804573059,0.3862519860267639,7.315000057220459,32.34000015258789,37.79999923706055
10.631854572661549,-0.0783239975571632,-0.5738880038261414,0.3479439914226532,-3.954999923706055,21.752500534057617,34.790000915527344
10.652144371464338,-0.037331998348236,-0.5946279764175415,0.3037799894809723,-21.227500915527344,14.542500495910645,30.57250022888184
10.672434170267127,-0.0287919994443655,-0.5909680128097534,0.3391599953174591,-35.50749969482422,9.9399995803833,25.899999618530277
10.692723969069917,-0.0187879987061023,-0.6075599789619446,0.3986960053443908,-47.23250198364258,8.505000114440918,18.987499237060547
10.713013767872706,-0.0402599982917308,-0.7241919636726379,0.4055279791355133,-53.28749847412109,10.552499771118164,8.154999732971191
10.733303566675495,-0.0478239990770816,-1.29368793964386,0.4189479947090149,-44.45000076293945,8.609999656677246,-9.99250030517578
10.753593365478284,0.042943999171257,-1.4796159267425537,0.5258200168609619,-12.005000114440918,7.769999980926514,-15.732500076293944
10.773883164281074,0.0405040010809898,-1.2858799695968628,0.5712040066719055,23.57250022888184,7.4375,-9.135000228881836
10.794172963083863,-0.0080519998446106,-0.9018239974975586,0.6256160140037537,34.10750198364258,12.862500190734863,3.884999990463257
10.814462761886652,-0.0985759943723678,-0.8256959915161133,0.6995480060577393,25.67250061035156,28.350000381469727,5.792500019073486
10.834752560689441,-0.1539639979600906,-0.9911279678344728,0.7668919563293457,20.94750022888184,36.15499877929688,-3.3949999809265137
10.85504235949223,-0.1285879909992218,-1.2251240015029907,0.8164240121841431,17.797500610351562,31.09749984741211,-6.702499866485596
10.87533215829502,-0.3794199824333191,-1.417639970779419,0.589747965335846,19.670000076293945,20.107500076293945,-6.230000019073486
10.89562195709781,-0.4467639923095703,-1.460096001625061,0.4738479852676391,29.03249931335449,4.96999979019165,-0.7699999809265137
10.915911755900598,-0.3962559998035431,-1.197551965713501,0.3445279896259308,45.290000915527344,-10.710000038146973,-3.8324999809265137
10.936201554703388,-0.3047559857368469,-0.8654679656028748,0.2496119886636734,56.85750198364258,-16.450000762939453,-16.502500534057617
10.956491353506177,-0.0844239965081214,-0.5726680159568787,0.1593319922685623,53.72499847412109,-10.90250015258789,-33.407501220703125
10.976781152308966,0.0168359987437725,-0.6346439719200134,0.0409919992089271,29.76749992370605,-5.722499847412109,-40.65250015258789
10.997070951111755,-0.0195199996232986,-0.8188639879226685,0.1603080034255981,12.529999732971191,-16.065000534057617,-36.27750015258789
11.017360749914545,-0.0805199965834617,-1.073356032371521,0.367464005947113,-10.850000381469728,-40.915000915527344,-24.920000076293945
11.037650548717334,-0.0841799974441528,-1.1580239534378052,0.4082120060920715,-12.72249984741211,-66.5875015258789,-23.729999542236328
11.057940347520123,0.085156001150608,-0.9952759742736816,0.4540839791297912,7.0,-71.17250061035156,-35.40250015258789
11.078230146322912,0.1412760019302368,-0.8669319748878479,0.3584359884262085,11.182499885559082,-52.9375,-43.57500076293945
11.098519945125702,0.1468880027532577,-0.7498120069503784,0.2845039963722229,5.652500152587891,-40.61750030517578,-49.8224983215332
11.118809743928491,0.1761679947376251,-0.6346439719200134,0.2466839998960495,-10.412500381469728,-37.64250183105469,-48.42250061035156
11.13909954273128,0.2088640034198761,-0.6414759755134583,0.2030079960823059,-31.604999542236328,-42.47249984741211,-36.33000183105469
11.15938934153407,0.2252119928598404,-0.7385879755020142,0.2064239978790283,-49.42000198364258,-47.775001525878906,-21.962499618530277
11.179679140336859,0.2137439996004104,-0.7912920117378235,0.2598600089550018,-55.84249877929688,-43.73250198364258,-10.587499618530272
11.199968939139648,0.1742160022258758,-0.8832799792289734,0.301827996969223,-54.51250076293945,-37.72999954223633,-5.599999904632568
11.220258737942437,0.1415199935436248,-0.8335039615631104,0.3601439893245697,-39.68999862670898,-31.79750061035156,-7.927500247955322
11.240548536745226,0.1029679998755455,-0.7927559614181519,0.3467240035533905,-30.677499771118164,-28.80500030517578,-3.6575000286102295
11.260838335548016,0.1261480003595352,-0.7295599579811096,0.3169559836387634,-30.20499992370605,-30.625,6.002500057220459
11.281128134350805,0.1815359890460968,-0.7029640078544617,0.2971920073032379,-37.36249923706055,-30.59000015258789,18.58500099182129
11.301417933153594,0.2171600013971328,-0.7000359892845154,0.269131988286972,-40.7400016784668,-27.229999542236328,31.21999931335449
11.321707731956383,0.2259439975023269,-0.7461519837379456,0.2286279946565628,-40.67000198364258,-27.247499465942383,42.227500915527344
11.341997530759173,0.1864160001277923,-1.0584720373153689,0.3337920010089874,-37.53749847412109,-25.40999984741211,48.54500198364258
11.362287329561962,0.1259039938449859,-1.1253279447555542,0.3313519954681396,-28.717500686645508,-23.940000534057617,35.80500030517578
11.382577128364751,0.0963799953460693,-1.1287440061569214,0.3484320044517517,-23.729999542236328,-22.34749984741211,19.915000915527344
11.40286692716754,0.1088239997625351,-1.0538359880447388,0.3896679878234863,-26.424999237060547,-24.604999542236328,5.232500076293945
11.42315672597033,0.1932480037212371,-0.993079960346222,0.4052839875221252,-31.727500915527344,-32.8125,-6.5625
11.443446524773119,0.2884079813957214,-1.067255973815918,0.3764919936656952,-27.212499618530277,-40.70500183105469,-6.789999961853027
11.463736323575908,0.2525399923324585,-1.1992599964141846,0.4016239941120147,-7.402500152587891,-41.58000183105469,2.484999895095825
11.484026122378697,0.2620559930801391,-1.2253680229187012,0.4777520000934601,10.9375,-40.79249954223633,4.322500228881836
11.504315921181487,0.3601439893245697,-1.3346799612045288,0.330375999212265,15.24250030517578,-43.505001068115234,-5.09250020980835
11.524605719984276,0.3606320023536682,-1.439355969429016,0.2142319977283477,18.934999465942383,-49.84000015258789,-20.86000061035156
11.544895518787065,0.3552640080451965,-1.4671720266342163,0.0034159999340772,26.63500022888184,-45.04500198364258,-35.595001220703125
11.565185317589854,0.2315559983253479,-1.2885639667510986,-0.2654719948768616,46.4275016784668,-25.23500061035156,-39.25249862670898
11.585475116392644,0.0680759996175766,-0.9049959778785706,-0.1307840049266815,66.98999786376953,-27.842500686645508,-24.53499984741211
11.605764915195433,0.0539239980280399,-0.667095959186554,0.1956879943609237,72.92250061035156,-35.70000076293945,-2.502500057220459
11.626054713998222,0.0121999997645616,-0.8147159814834595,0.4287079870700836,66.1675033569336,-15.732500076293944,18.07749938964844
11.646344512801011,-0.0385520011186599,-1.0799440145492554,0.5460720062255859,49.997501373291016,8.680000305175781,34.42250061035156
11.6666343116038,-0.0263519994914531,-1.2751439809799194,0.4025999903678894,42.665000915527344,16.8174991607666,34.66749954223633
11.68692411040659,0.0009759999811649,-1.0809199810028076,0.2230159938335418,76.19499969482422,23.239999771118164,18.96999931335449
11.70721390920938,0.0888160020112991,-0.8205719590187073,0.2132560014724731,88.88249969482422,20.70249938964844,10.149999618530272
11.727503708012168,0.1712879985570907,-0.7344399690628052,0.2225279957056045,64.8550033569336,19.862499237060547,21.82250022888184
11.747793506814958,0.1737279891967773,-0.6361079812049866,0.2457079887390136,39.65499877929688,21.6825008392334,37.59000015258789
11.768083305617747,0.0856439992785453,-0.6544079780578613,0.3150039911270141,14.332500457763672,22.049999237060547,47.31999969482422
11.788373104420536,-0.0502640008926391,-0.7332199811935425,0.4079679846763611,-0.6474999785423279,21.857500076293945,48.00249862670898
11.808662903223325,-0.1261480003595352,-0.8069080114364624,0.444811999797821,-1.0149999856948853,22.645000457763672,41.02000045776367
11.828952702026115,-0.1363959908485412,-0.8134959936141968,0.444811999797821,10.587499618530272,25.200000762939453,32.619998931884766
11.849242500828904,-0.0817399993538856,-0.7771399617195129,0.403575986623764,17.395000457763672,25.427499771118164,28.192501068115234
11.869532299631693,-0.0007319999858736,-0.6297639608383179,0.3479439914226532,15.609999656677246,23.747499465942383,28.332500457763672
11.889822098434482,0.0339160002768039,-0.5158159732818604,0.3442839980125427,-1.995000004768372,18.987499237060547,30.030000686645508
11.910111897237272,0.0312319993972778,-0.530456006526947,0.3328160047531128,-28.262500762939453,17.954999923706055,28.01749992370605
11.930401696040061,0.037331998348236,-0.5748639702796936,0.3835679888725281,-47.42499923706055,18.357500076293945,20.59749984741211
11.95069149484285,-0.0124439997598528,-0.8081279993057251,0.4660399854183197,-60.532501220703125,22.399999618530277,4.059999942779541
11.97098129364564,-0.0514839999377727,-1.0516400337219238,0.4396879971027374,-55.26499938964844,24.86750030517578,-2.2225000858306885
11.991271092448429,0.0151279997080564,-1.2634320259094238,0.4714079797267914,-35.10499954223633,31.95499992370605,-7.577499866485596
12.011560891251218,0.0993079990148544,-1.3317519426345823,0.5302119851112366,-6.982500076293945,39.79500198364258,-6.002500057220459
12.031850690054007,0.0595359988510608,-1.0377320051193235,0.5370439887046814,14.94499969482422,45.4474983215332,5.792500019073486
12.052140488856796,-0.0929640009999275,-0.7820199728012085,0.5655919909477234,10.02750015258789,51.64250183105469,12.914999961853027
12.072430287659586,-0.2078879922628402,-0.9555040001869202,0.6385480165481567,-6.615000247955322,57.26000213623047,3.307500123977661
12.092720086462375,-0.2400960028171539,-1.4732719659805298,0.6844199895858765,-9.292500495910645,58.64250183105469,-1.6100000143051147
12.113009885265164,-0.3520919978618622,-1.8068199157714844,0.5726680159568787,19.8799991607666,51.93999862670898,6.440000057220459
12.133299684067953,-0.3613640069961548,-1.439355969429016,0.440420001745224,53.70750045776367,22.854999542236328,11.88249969482422
12.153589482870743,-0.3435519933700561,-0.9445239901542664,0.4460319876670837,57.78499984741211,10.02750015258789,5.389999866485596
12.173879281673532,-0.3372080028057098,-0.6541640162467957,0.379175990819931,46.900001525878906,17.290000915527344,-17.43000030517578
12.194169080476321,-0.1986159980297088,-0.606827974319458,0.2596159875392914,26.65250015258789,16.729999542236328,-44.345001220703125
12.21445887927911,-0.0312319993972778,-0.8376519680023193,0.0324519984424114,5.232500076293945,10.920000076293944,-55.15999984741211
12.2347486780819,0.1171199977397918,-1.077991962432861,-0.0617319978773593,-0.1574999988079071,8.260000228881836,-40.337501525878906
12.255038476884689,-0.0405040010809898,-1.1250839233398438,0.0400159992277622,6.737500190734863,-4.042500019073486,-23.467500686645508
12.275328275687478,-0.1449359953403473,-1.091655969619751,0.2715719938278198,9.100000381469728,-34.439998626708984,-24.44750022888184
12.295618074490267,-0.0458719991147518,-0.9398880004882812,0.4660399854183197,9.135000228881836,-55.94750213623047,-36.73250198364258
12.315907873293057,0.0043919999152421,-0.8130080103874207,0.4350519776344299,2.2925000190734863,-54.95000076293945,-44.88750076293945
12.336197672095846,0.037331998348236,-0.8252080082893372,0.2928000092506408,-13.912500381469728,-48.45750045776367,-45.83250045776367
12.356487470898635,0.0863759964704513,-0.8583920001983643,0.2052039951086044,-23.48500061035156,-42.36750030517578,-44.59000015258789
12.376777269701424,0.1015039980411529,-0.8069080114364624,0.1927599906921386,-25.96999931335449,-40.25,-37.817501068115234
12.397067068504214,0.1251720041036605,-0.7888519763946533,0.1908079981803894,-33.54750061035156,-47.38999938964844,-26.162500381469727
12.417356867307003,0.1790959984064102,-0.7529839873313904,0.220331996679306,-39.567501068115234,-55.6150016784668,-17.832500457763672
12.437646666109792,0.2054480016231537,-0.7434679865837097,0.2083759903907776,-49.157501220703125,-55.73749923706055,-11.182499885559082
12.457936464912581,0.191783994436264,-0.7844600081443787,0.2195999920368194,-56.90999984741211,-50.01499938964844,-3.255000114440918
12.47822626371537,0.1461559981107711,-0.8283799886703491,0.2454639971256256,-55.42250061035156,-43.994998931884766,4.287499904632568
12.49851606251816,0.118827998638153,-0.8259400129318237,0.2791360020637512,-46.11249923706055,-42.84000015258789,10.517499923706056
12.51880586132095,0.1268799901008606,-0.790071964263916,0.2820639908313751,-38.04500198364258,-42.122501373291016,19.040000915527344
12.539095660123738,0.1978839933872223,-0.7888519763946533,0.2871879935264587,-33.442501068115234,-38.727500915527344,29.88999938964844
12.559385458926528,0.2479040026664734,-0.7754319906234741,0.2735239863395691,-19.98500061035156,-31.02750015258789,47.11000061035156
12.579675257729317,0.2310680001974105,-0.875715970993042,0.2564440071582794,-19.9325008392334,-27.07250022888184,51.59000015258789
12.599965056532106,0.1483519971370697,-1.0238239765167236,0.224723994731903,-24.27250099182129,-23.92250061035156,52.272499084472656
12.620254855334895,0.0824719965457916,-1.1345999240875244,0.2066679894924163,-24.63999938964844,-18.95249938964844,43.61000061035156
12.640544654137685,0.0548999980092048,-1.16949200630188,0.2991439998149872,-27.52750015258789,-12.932499885559082,27.26499938964844
12.660834452940474,0.0890600010752677,-1.130452036857605,0.3291559815406799,-32.8125,-15.067500114440918,9.15250015258789
12.681124251743263,0.1751919984817505,-1.093608021736145,0.2820639908313751,-30.13500022888184,-23.012500762939453,-2.625
12.701414050546052,0.2159399986267089,-1.159243941307068,0.2832840085029602,-20.96500015258789,-30.957500457763672,-2.747499942779541
12.721703849348842,0.2500999867916107,-1.236348032951355,0.3486759960651397,-5.53000020980835,-32.98749923706055,0.7350000143051147
12.741993648151631,0.2918239831924438,-1.4183719158172607,0.261568009853363,8.225000381469727,-30.22249984741211,-7.385000228881836
12.76228344695442,0.2928000092506408,-1.4459439516067505,0.297679990530014,15.067500114440918,-31.989999771118164,-28.420000076293945
12.78257324575721,0.3101239800453186,-1.476931929588318,0.1898320019245147,9.869999885559082,-37.275001525878906,-46.462501525878906
12.802863044559999,0.2659600079059601,-1.2700200080871582,-0.0402599982917308,28.315000534057617,-24.2549991607666,-49.9275016784668
12.823152843362788,0.1661639958620071,-0.9896639585494996,-0.1576239913702011,50.13750076293945,-15.050000190734863,-33.337501525878906
12.843442642165577,0.0141519997268915,-0.7888519763946533,-0.0773480013012886,63.33250045776367,-32.165000915527344,-9.239999771118164
12.863732440968366,-0.0861319974064827,-0.6707559823989868,0.0749079957604408,66.08000183105469,-47.54750061035156,12.390000343322754
12.884022239771156,-0.1820240020751953,-0.7593280076980591,0.2408279925584793,55.86000061035156,-29.03249931335449,22.924999237060547
12.904312038573945,-0.115167997777462,-1.1267919540405271,0.3237879872322082,31.412500381469727,-3.692500114440918,23.170000076293945
12.924601837376734,0.037331998348236,-1.255136013031006,0.3167119920253753,38.02750015258789,17.219999313354492,10.587499618530272
12.944891636179523,0.1046760007739067,-1.0904359817504885,0.264983981847763,64.43499755859375,27.912500381469727,3.3949999809265137
12.965181434982313,0.1063839942216873,-0.8825479745864868,0.20032399892807,81.25250244140625,25.51499938964844,0.0874999985098838
12.985471233785102,0.0832040011882782,-0.8393599987030029,0.1298079937696457,73.30750274658203,19.18000030517578,7.297500133514404
13.005761032587891,0.047580000013113,-0.7563999891281128,0.177387997508049,57.29500198364258,18.00749969482422,17.832500457763672
13.02605083139068,0.0148839997127652,-0.7634760141372681,0.2720600068569183,30.799999237060547,20.299999237060547,24.20249938964844
13.04634063019347,-0.0129319997504353,-0.8073959946632385,0.3735640048980713,9.9399995803833,22.627500534057617,21.50749969482422
13.066630428996259,-0.037331998348236,-0.8957239985466003,0.4138239920139313,1.7324999570846558,24.3075008392334,17.342500686645508
13.086920227799048,-0.0785679966211319,-0.9418399930000304,0.3938159942626953,8.032500267028809,27.3700008392334,14.857500076293944
13.107210026601837,-0.0478239990770816,-0.9023119807243348,0.3891800045967102,19.162500381469727,27.299999237060547,13.614999771118164
13.127499825404627,0.009515999816358,-0.7812879681587219,0.3852759897708893,24.780000686645508,27.457500457763672,12.28499984741211
13.147789624207416,0.0085399998351931,-0.602679967880249,0.3301320075988769,15.71500015258789,27.125,12.600000381469728
13.168079423010205,-0.0121999997645616,-0.7029640078544617,0.3372080028057098,-24.43000030517578,20.895000457763672,5.757500171661377
13.188369221812994,0.0043919999152421,-0.8000760078430176,0.4028439819812774,-30.625,18.30500030517578,-1.8025000095367432
13.208659020615784,0.0134199997410178,-0.9032880067825316,0.4260239899158478,-25.287500381469727,14.770000457763672,-12.197500228881836
13.228948819418573,0.0070759998634457,-0.949891984462738,0.4138239920139313,-14.612500190734863,12.039999961853027,-18.8125
13.249238618221362,0.0121999997645616,-0.9259799718856812,0.4250479936599731,-7.227499961853027,9.467499732971191,-20.229999542236328
13.269528417024151,0.0192760005593299,-0.9335439801216124,0.4538399875164032,-5.144999980926514,6.527500152587891,-17.3075008392334
13.28981821582694,0.0351359993219375,-0.9237839579582214,0.4738479852676391,-0.1924999952316284,6.264999866485596,-15.38249969482422
13.31010801462973,0.0893040001392364,-0.9162200093269348,0.4987359941005707,2.362499952316284,7.769999980926514,-15.137499809265137
13.33039781343252,0.1393239945173263,-0.958187997341156,0.4931239783763885,2.309999942779541,11.234999656677246,-14.612500190734863
13.350687612235308,0.1490840017795562,-0.9847840070724488,0.485071986913681,6.125,18.32250022888184,-14.524999618530272
13.370977411038098,0.0741759985685348,-1.0028399229049685,0.493367999792099,9.3100004196167,26.512500762939453,-15.592499732971191
13.391267209840887,0.0036599999293684,-1.248304009437561,0.5424119830131531,7.175000190734863,32.584999084472656,-10.86750030517578
13.411557008643676,-0.0056119998916983,-1.6108880043029783,0.5902360081672668,6.965000152587891,35.595001220703125,6.737500190734863
13.431846807446465,-0.2591280043125152,-1.4857159852981567,0.3781999945640564,25.987499237060547,21.787500381469727,17.587499618530273
13.452136606249255,-0.5719360113143921,-0.908411979675293,0.3030479848384857,49.77000045776367,-10.3774995803833,3.1675000190734863
13.472426405052044,-0.4477399885654449,-0.4975159764289856,0.3137840032577514,40.09249877929688,-23.537500381469727,-15.329999923706056
13.492716203854833,-0.2498559951782226,-0.3152479827404022,0.2166720032691955,16.59000015258789,-13.282500267028809,-37.1349983215332
13.513006002657622,-0.0139079997316002,-0.6126840114593506,0.1322479993104934,-13.545000076293944,-11.654999732971191,-46.935001373291016
13.533295801460412,0.3386719822883606,-1.223171949386597,0.3318399786949157,-36.78499984741211,-12.057499885559082,-17.674999237060547
13.553585600263201,0.0678320005536079,-1.36273992061615,0.2549799978733063,-20.825000762939453,-15.417500495910645,15.137499809265137
13.57387539906599,-0.1551840007305145,-1.2270759344100952,0.2364359945058822,9.817500114440918,-57.62749862670898,8.942500114440918
13.59416519786878,0.0224479995667934,-0.9440360069274902,0.4526199996471405,22.487499237060547,-77.0,-7.769999980926514
13.614454996671569,0.0629519969224929,-0.8491199612617493,0.4155319929122925,15.8725004196167,-60.23500061035156,-21.280000686645508
13.634744795474358,0.0732000023126602,-0.8027600049972534,0.3123199939727783,6.212500095367432,-56.40250015258789,-26.862499237060547
13.655034594277147,0.1134599968791008,-0.7998319864273071,0.2474159896373748,-14.770000457763672,-60.8650016784668,-18.51499938964844
13.675324393079936,0.1210239976644516,-0.8452159762382507,0.1912959963083267,-36.75,-65.90499877929688,-3.0799999237060547
13.695614191882726,0.1259039938449859,-0.8593679666519165,0.2327760010957718,-44.52000045776367,-67.7249984741211,7.752500057220459
13.715903990685515,0.1666519939899444,-0.8815720081329346,0.289139986038208,-42.647499084472656,-65.20500183105469,10.692500114440918
13.736193789488304,0.2078879922628402,-0.8810839653015137,0.3298879861831665,-31.9375,-59.44750213623047,10.9375
13.756483588291093,0.2098399996757507,-0.8335039615631104,0.3428199887275696,-22.46999931335449,-52.79750061035156,15.225000381469728
13.776773387093883,0.2217959910631179,-0.7737239599227905,0.3142719864845276,-16.887500762939453,-42.40250015258789,27.877500534057617
13.797063185896672,0.2464399933815002,-0.7556679844856262,0.3340359926223755,-19.72249984741211,-37.869998931884766,36.400001525878906
13.817352984699461,0.2586399912834167,-0.7732359766960144,0.3294000029563904,-26.967500686645508,-33.564998626708984,46.65499877929688
13.83764278350225,0.2493679970502853,-0.8547319769859314,0.3013399839401245,-31.07999992370605,-28.192501068115234,55.317501068115234
13.85793258230504,0.2508319914340973,-0.9149999618530272,0.2835280001163482,-27.790000915527344,-21.665000915527344,58.72999954223633
13.878222381107829,0.2781600058078766,-0.9162200093269348,0.2579079866409302,-22.46999931335449,-14.770000457763672,56.227500915527344
13.898512179910618,0.2742559909820556,-0.9791719913482666,0.1747040003538131,-26.75749969482422,-5.267499923706055,50.540000915527344
13.918801978713407,0.1764120012521743,-1.046515941619873,0.191783994436264,-36.435001373291016,-0.5600000023841858,40.040000915527344
13.939091777516197,0.0885719954967498,-1.054811954498291,0.2542479932308197,-43.41749954223633,-2.502500057220459,26.84499931335449
13.959381576318986,0.0934519991278648,-1.085312008857727,0.2757200002670288,-43.85499954223633,-8.855000495910645,16.502500534057617
13.979671375121775,0.1156559959053993,-1.0269960165023804,0.2993879914283752,-34.29999923706055,-15.609999656677246,7.699999809265137
13.999961173924564,0.0773480013012886,-0.9418399930000304,0.3391599953174591,-24.989999771118164,-20.28249931335449,4.882500171661377
14.020250972727354,0.0434319972991943,-0.9257360100746156,0.3684400022029876,-20.3174991607666,-26.670000076293945,9.765000343322754
14.040540771530143,0.0822279974818229,-1.018455982208252,0.3781999945640564,-14.454999923706056,-32.287498474121094,16.082500457763672
14.060830570332932,0.1239520013332367,-1.0648159980773926,0.3869839906692505,-3.692500114440918,-33.7400016784668,17.202499389648438
14.081120369135721,0.2088640034198761,-1.050663948059082,0.2801119983196258,-1.5399999618530271,-33.95000076293945,16.100000381469727
14.10141016793851,0.3762480020523071,-1.1748600006103516,0.0854000002145767,-15.470000267028809,-25.795000076293945,13.352499961853027
14.1216999667413,0.4628680050373077,-1.283195972442627,0.033671997487545,-29.137500762939453,-8.522500038146973,-1.277500033378601
14.14198976554409,0.5468040108680725,-1.3937280178070068,0.0502640008926391,-34.0724983215332,0.9100000262260436,-31.53499984741211
14.162279564346878,0.3947919905185699,-1.4381359815597534,0.028303999453783,-14.5600004196167,17.342500686645508,-54.477500915527344
14.182569363149668,0.2073999941349029,-1.2497680187225342,0.0341599993407726,28.40250015258789,20.790000915527344,-55.70249938964844
14.202859161952457,0.0973559990525245,-0.998691976070404,0.013663999736309,60.602500915527344,10.412500381469728,-32.84749984741211
14.223148960755246,-0.0014639999717473,-0.9357399940490724,0.0548999980092048,69.30000305175781,7.525000095367432,-11.427499771118164
14.243438759558035,-0.2220399975776672,-0.8317959904670715,0.1812919974327087,64.55750274658203,15.137499809265137,-2.677500009536743
14.263728558360825,-0.330375999212265,-0.7712839841842651,0.293531984090805,46.025001525878906,13.387499809265137,-5.6875
14.284018357163614,-0.2169159948825836,-0.8637599945068359,0.3257399797439575,35.17499923706055,19.98500061035156,-12.355000495910645
14.304308155966403,0.0217159986495971,-1.0089399814605713,0.3508719801902771,38.16749954223633,42.192501068115234,-14.192500114440918
14.324597954769192,0.1647000014781952,-1.113860011100769,0.2796239852905273,43.48749923706055,63.34999847412109,-6.072500228881836
14.344887753571982,0.1815359890460968,-0.938423991203308,0.1854400038719177,50.01499938964844,67.14749908447266,0.8400000333786011
14.365177552374771,0.1793399900197982,-0.915731966495514,0.1898320019245147,43.872501373291016,61.12749862670898,6.40500020980835
14.38546735117756,-0.003171999938786,-0.9406200051307678,0.2418039888143539,35.0,59.20249938964844,-7.699999809265137
14.40575714998035,-0.041967999190092,-0.908411979675293,0.3054879903793335,36.032501220703125,59.37749862670898,-22.81999969482422
14.426046948783139,-0.0368440002202987,-0.8620519638061523,0.31768798828125,34.42250061035156,60.35750198364258,-27.649999618530277
14.446336747585928,-0.0270840004086494,-0.7939760088920593,0.3215920031070709,27.229999542236328,65.78250122070312,-21.80500030517578
14.466626546388717,-0.0514839999377727,-0.8098359704017639,0.3037799894809723,13.859999656677246,74.62000274658203,-11.567500114440918
14.486916345191506,-0.0871080011129379,-0.8266719579696655,0.3050000071525574,3.569999933242798,82.02249908447266,-5.039999961853027
14.507206143994296,-0.0749079957604408,-0.8803519606590271,0.2808440029621124,-2.817500114440918,87.51750183105469,-5.949999809265137
14.527495942797085,-0.0097599998116493,-0.880840003490448,0.2835280001163482,-3.3600001335144043,89.94999694824219,-11.88249969482422
14.547785741599874,0.0719799995422363,-0.8964560031890869,0.2813319861888885,-5.460000038146973,92.4175033569336,-21.6825008392334
14.568075540402663,0.109555996954441,-0.9723399877548218,0.260591983795166,-4.987500190734863,95.42749786376952,-30.59000015258789
14.588365339205453,0.1307840049266815,-0.9464759826660156,0.2754760086536407,0.5249999761581421,98.68250274658205,-39.27000045776367
14.608655138008242,0.1420079916715622,-0.9198799729347228,0.3047559857368469,-3.7100000381469727,107.30999755859376,-40.12749862670898
14.628944936811031,0.0790559947490692,-0.9847840070724488,0.3237879872322082,-9.204999923706056,118.44000244140624,-38.0625
14.64923473561382,-0.0036599999293684,-1.0050359964370728,0.3357439935207367,-7.244999885559082,122.1675033569336,-38.290000915527344
14.66952453441661,-0.0412359982728958,-0.9789279699325562,0.3630719780921936,-6.335000038146973,119.27999877929688,-38.1150016784668
14.689814333219399,-0.0287919994443655,-1.0025960206985474,0.3696599900722503,-5.617499828338623,117.56500244140624,-39.462501525878906
14.710104132022188,0.0117119997739791,-0.981611967086792,0.3789319992065429,1.1024999618530271,122.5875015258789,-44.76499938964844
14.730393930824977,0.0307439994066953,-0.948915958404541,0.3872279822826385,4.375,129.7274932861328,-49.4900016784668
14.750683729627767,0.0551439970731735,-0.9228079915046692,0.3947919905185699,4.182499885559082,133.47250366210938,-52.9900016784668
14.770973528430556,0.0583159998059272,-0.9171959757804872,0.3947919905185699,3.920000076293945,136.44749450683594,-56.71749877929688
14.791263327233345,0.0619760006666183,-0.8903560042381287,0.4040639996528625,4.445000171661377,137.77749633789062,-62.02000045776367
14.811553126036134,0.052947998046875,-0.8520479798316956,0.3894239962100982,3.884999990463257,137.3925018310547,-66.90250396728516
14.831842924838924,0.0002439999952912,-0.8356999754905701,0.3569719791412353,0.6474999785423279,136.79750061035156,-69.38749694824219
14.852132723641713,-0.0319640003144741,-0.9120720028877258,0.3479439914226532,-4.917500019073486,136.37750244140625,-69.42250061035156
14.872422522444502,-0.138835996389389,-1.055299997329712,0.3252519965171814,-5.337500095367432,138.58250427246094,-70.3324966430664
14.892712321247291,-0.1666519939899444,-1.1816920042037964,0.2134999930858612,-0.262499988079071,134.19000244140625,-64.59249877929688
14.91300212005008,-0.0678320005536079,-1.217803955078125,0.1412760019302368,2.380000114440918,130.27000427246094,-53.44499969482422
14.93329191885287,-0.1864160001277923,-1.095315933227539,-0.0226919986307621,11.095000267028809,122.77999877929688,-53.98749923706055
14.95358171765566,-0.1459119915962219,-0.9703879952430724,0.0261080004274845,10.167500495910645,106.97750091552734,-55.282501220703125
14.973871516458448,-0.0597799979150295,-0.957211971282959,0.1212679967284202,-4.672500133514404,100.43250274658205,-54.09249877929688
14.994161315261238,0.1293199956417083,-1.052616000175476,0.1207799986004829,-26.354999542236328,105.6125030517578,-42.73500061035156
15.014451114064027,0.1373720020055771,-1.042367935180664,0.065880000591278,-29.049999237060547,104.80750274658205,-40.775001525878906
15.034740912866816,0.1381039917469024,-1.0008879899978638,0.076615996658802,-31.3075008392334,101.98999786376952,-45.4474983215332
15.055030711669605,0.1705559939146042,-1.0016199350357056,0.1049199998378753,-36.62749862670898,101.36000061035156,-52.46500015258789
15.075320510472395,0.2122799903154373,-1.03602397441864,0.134443998336792,-41.43999862670898,105.20999908447266,-54.63500213623047
15.095610309275184,0.2217959910631179,-1.029191970825195,0.1278560012578964,-44.817501068115234,111.00250244140624,-51.747501373291016
15.115900108077973,0.1898320019245147,-0.9960079789161682,0.0861319974064827,-49.10499954223633,115.39500427246094,-47.11000061035156
15.136189906880762,0.140299990773201,-0.9677039980888368,0.0695400014519691,-53.72499847412109,118.35250091552734,-42.27999877929688
15.156479705683552,0.1000399962067604,-0.9750239849090576,0.0780799984931945,-56.89250183105469,119.9625015258789,-39.130001068115234
15.17676950448634,0.0824719965457916,-0.9996680021286012,0.0973559990525245,-53.462501525878906,120.1374969482422,-37.59000015258789
15.19705930328913,0.0824719965457916,-1.0238239765167236,0.1046760007739067,-43.75,119.24500274658205,-37.04750061035156
15.21734910209192,0.0868639945983886,-1.024799942970276,0.0949160009622573,-31.727500915527344,116.77750396728516,-35.94499969482422
15.237638900894709,0.0841799974441528,-1.0106480121612549,0.0980879962444305,-22.46999931335449,113.88999938964844,-33.25
15.257928699697498,0.0451399981975555,-1.0057679414749146,0.1005280017852783,-16.975000381469727,111.87750244140624,-29.942501068115234
15.278218498500287,0.0273279994726181,-0.9882000088691713,0.1271239966154098,-14.192500114440918,108.34249877929688,-28.29750061035156
15.298508297303076,0.0385520011186599,-0.9821000099182128,0.1280999928712844,-14.770000457763672,105.20999908447266,-27.49250030517578
15.318798096105866,0.0710039958357811,-1.0003999471664429,0.1173639968037605,-15.977499961853027,101.95500183105467,-26.4424991607666
15.339087894908655,0.0985759943723678,-1.019919991493225,0.1129719987511634,-15.8725004196167,99.3125,-25.5674991607666
15.359377693711444,0.1249279975891113,-1.0252879858016968,0.1054079979658126,-14.857500076293944,97.37000274658205,-24.989999771118164
15.379667492514233,0.1693359911441803,-0.990395963191986,0.095891997218132,-13.824999809265137,94.27249908447266,-24.5
15.399957291317023,0.1864160001277923,-0.9801479578018188,0.0844239965081214,-14.47249984741211,92.75,-23.20499992370605
15.420247090119812,0.1751919984817505,-0.954039990901947,0.0839359983801841,-14.454999923706056,94.88500213623048,-21.57749938964844
15.440536888922601,0.1764120012521743,-0.925491988658905,0.0722239986062049,-15.855000495910645,95.34000396728516,-18.637500762939453
15.46082668772539,0.1878799945116043,-0.9235399961471558,0.0534359999001026,-18.217500686645508,95.6374969482422,-14.279999732971191
15.48111648652818,0.185928001999855,-0.9476959705352784,0.0326960012316703,-20.177499771118164,98.48999786376952,-9.5024995803833
15.501406285330969,0.1542080044746399,-0.9877119660377502,0.0280600003898143,-19.565000534057617,99.8375015258789,-6.369999885559082
15.521696084133758,0.1312720030546188,-0.9999119639396667,0.0492879971861839,-15.662500381469728,98.31500244140624,-4.462500095367432
15.541985882936547,0.1161440014839172,-0.9921039938926696,0.0724679976701736,-11.602499961853027,95.7249984741211,-2.3975000381469727
15.562275681739337,0.1005280017852783,-0.966484010219574,0.0941839963197708,-6.929999828338623,93.06500244140624,-1.4874999523162842
15.582565480542126,0.115167997777462,-0.9364719986915588,0.0971119999885559,-4.042500019073486,89.96749877929688,-1.0674999952316284
15.602855279344915,0.1754359900951385,-0.977952003479004,0.0378200002014637,-4.917500019073486,87.76249694824219,2.2925000190734863
15.623145078147704,0.1766559928655624,-1.0130879878997805,0.0246439985930919,-2.922499895095825,85.48750305175781,1.662500023841858
15.643434876950494,0.1485960036516189,-0.9984479546546936,0.0431879982352256,0.9100000262260436,79.01249694824219,-1.0674999952316284
15.663724675753283,0.1063839942216873,-0.9889319539070128,0.0807639956474304,3.4124999046325684,70.84000396728516,-3.289999961853028
15.684014474556072,0.0363559983670711,-1.0050359964370728,0.1751919984817505,2.432500123977661,63.70000076293945,-4.865000247955322
15.704304273358861,0.0119559997692704,-1.051151990890503,0.2483920007944107,-3.132499933242798,56.36750030517578,-8.34749984741211
15.72459407216165,-0.0041479999199509,-1.148263931274414,0.2920680046081543,-11.899999618530272,50.48749923706055,-13.720000267028809
15.74488387096444,0.0878399983048439,-1.267091989517212,0.2364359945058822,-15.015000343322754,50.34749984741211,-24.44750022888184
15.76517366976723,0.1912959963083267,-1.1853519678115845,0.1869039982557296,-2.117500066757202,57.20750045776367,-34.98250198364258
15.785463468570018,0.1861719936132431,-1.0077199935913086,0.2125239968299865,10.3774995803833,60.060001373291016,-30.100000381469727
15.805753267372808,0.056607998907566,-0.9818559885025024,0.2644959986209869,14.4375,58.88750076293945,-11.970000267028809
15.826043066175597,-0.0387960001826286,-1.0321199893951416,0.280599981546402,20.125,64.08499908447266,-1.6100000143051147
15.846332864978386,-0.0448959991335868,-1.011379957199097,0.2779159843921661,26.372499465942383,75.23249816894531,-3.4825000762939453
15.866622663781175,0.0326960012316703,-0.981611967086792,0.2786479890346527,29.69750022888184,86.13500213623047,-8.819999694824219
15.886912462583965,0.0605119988322258,-1.007475972175598,0.2681559920310974,30.100000381469727,96.37249755859376,-13.230000495910645
15.907202261386754,0.0412359982728958,-1.089460015296936,0.284991979598999,35.94499969482422,106.2074966430664,-17.114999771118164
15.927492060189543,-0.0226919986307621,-1.1060519218444824,0.2837719917297363,47.65250015258789,113.4000015258789,-21.06999969482422
15.947781858992332,-0.1158999949693679,-1.0213840007781982,0.2727919816970825,58.60750198364258,114.92250061035156,-26.424999237060547
15.968071657795122,-0.1115079969167709,-1.0296800136566162,0.3013399839401245,57.084999084472656,112.41999816894533,-28.280000686645508
15.98836145659791,-0.0392839983105659,-0.9757559895515442,0.3435519933700561,54.337501525878906,107.13500213623048,-25.88249969482422
16.0086512554007,-0.0773480013012886,-0.8081279993057251,0.3125639855861664,58.09999847412109,104.0199966430664,-33.915000915527344
16.02894105420349,-0.0619760006666183,-0.8171559572219849,0.2801119983196258,49.560001373291016,103.49500274658205,-37.1349983215332
16.04923085300628,-0.0119559997692704,-0.7764079570770264,0.3001199960708618,39.7599983215332,111.0374984741211,-32.8650016784668
16.069520651809068,0.0087839998304843,-0.7671359777450562,0.3101239800453186,23.48500061035156,119.13999938964844,-24.27250099182129
16.089810450611857,0.0307439994066953,-0.8642479777336121,0.34647998213768,11.987500190734863,122.3249969482422,-19.477500915527344
16.110100249414646,0.0312319993972778,-0.8378959894180298,0.3620959818363189,15.609999656677246,122.1675033569336,-20.7549991607666
16.130390048217436,0.0151279997080564,-0.8344799876213074,0.3411119878292084,17.377500534057617,118.96500396728516,-25.864999771118164
16.150679847020225,-0.0141519997268915,-0.835211992263794,0.3555079996585846,17.46500015258789,114.67749786376952,-29.1200008392334
16.170969645823014,-0.0297679994255304,-0.8615639805793762,0.3925960063934326,14.9975004196167,113.20750427246094,-29.505001068115234
16.191259444625803,-0.047580000013113,-0.8535119891166687,0.4133359789848327,14.087499618530272,112.71749877929688,-29.049999237060547
16.211549243428593,-0.0905239954590797,-0.7961719632148743,0.4145559966564178,7.822500228881836,107.39749908447266,-26.6875
16.231839042231382,-0.0653920024633407,-0.7864120006561279,0.4282200038433075,2.012500047683716,102.16500091552734,-26.145000457763672
16.25212884103417,-0.0558759979903698,-0.8027600049972534,0.4538399875164032,-3.1675000190734863,94.25499725341795,-27.387500762939453
16.27241863983696,-0.0780799984931945,-0.8252080082893372,0.4823879897594452,-6.579999923706055,84.03500366210938,-28.64750099182129
16.29270843863975,-0.1024799942970275,-0.8425319790840149,0.5036159753799438,-7.542500019073486,75.30249786376953,-26.70499992370605
16.31299823744254,-0.119559995830059,-0.8603439927101135,0.4743359982967376,-9.782500267028809,71.12000274658203,-21.45499992370605
16.333288036245328,-0.1005280017852783,-0.891819953918457,0.4306599795818329,-9.22249984741211,72.44999694824219,-18.375
16.353577835048117,-0.0400159992277622,-0.9232959747314452,0.4609159827232361,-5.09250020980835,74.16500091552734,-18.07749938964844
16.373867633850907,0.0087839998304843,-0.958675980567932,0.5182560086250305,1.399999976158142,73.1500015258789,-16.83500099182129
16.394157432653696,0.0168359987437725,-0.9674599766731262,0.5609560012817383,9.170000076293944,70.06999969482422,-15.154999732971191
16.414447231456485,-0.0117119997739791,-0.9496479630470276,0.5633959770202637,16.309999465942383,66.63999938964844,-15.994999885559082
16.434737030259274,-0.0317199975252151,-0.9088999629020692,0.5521720051765442,18.112499237060547,67.09500122070312,-18.357500076293945
16.455026829062064,-0.0997959971427917,-0.9591639637947084,0.5070319771766663,12.792500495910645,70.3499984741211,-20.107500076293945
16.475316627864853,-0.099551998078823,-1.08189594745636,0.545583963394165,6.142499923706055,68.25,-18.357500076293945
16.495606426667642,-0.1217559948563575,-1.2060920000076294,0.6358639597892761,4.690000057220459,59.272499084472656,-13.142499923706056
16.51589622547043,-0.1842200011014938,-1.235859990119934,0.7171159982681274,12.914999961853027,42.54249954223633,-9.65999984741211
16.53618602427322,-0.2437559962272644,-1.0418800115585327,0.6580680012702942,19.670000076293945,25.77750015258789,-10.1850004196167
16.55647582307601,-0.3808839917182922,-0.8503400087356567,0.6170759797096252,17.9375,20.07250022888184,-14.210000038146973
16.5767656218788,-0.4050399959087372,-0.8610759973526001,0.5446079969406128,20.107500076293945,20.545000076293945,-26.915000915527344
16.59705542068159,-0.4379799962043762,-0.9508680105209352,0.301827996969223,27.51000022888184,8.732500076293945,-46.44499969482422
16.617345219484378,-0.2954840064048767,-0.9591639637947084,0.1761679947376251,34.842498779296875,-11.707500457763672,-58.25749969482422
16.637635018287167,0.0883279964327812,-0.8159359693527222,0.1586000025272369,36.64500045776367,-14.94499969482422,-49.85750198364258
16.657924817089956,0.2012999951839447,-0.762499988079071,0.0827159956097602,27.912500381469727,4.497499942779541,-36.78499984741211
16.678214615892745,0.0139079997316002,-0.7751879692077637,0.0453839972615242,18.690000534057617,1.2599999904632568,-33.494998931884766
16.698504414695535,-0.0292799994349479,-0.8088600039482117,0.3257399797439575,-7.892499923706055,-27.70249938964844,-30.607500076293945
16.718794213498324,-0.0583159998059272,-0.92085599899292,0.5385079979896545,-41.282501220703125,-41.43999862670898,-25.88249969482422
16.739084012301113,-0.0585599988698959,-1.0338280200958252,0.569983959197998,-50.27750015258789,-37.01250076293945,-28.03499984741211
16.759373811103902,-0.061243999749422,-1.0584720373153689,0.5058119893074036,-33.7400016784668,-33.26750183105469,-39.88249969482422
16.77966360990669,0.0644159987568855,-0.969655990600586,0.4418839812278747,-18.375,-40.51250076293945,-51.69499969482422
16.79995340870948,0.2198439985513687,-0.7249239683151245,0.338916003704071,-22.69750022888184,-49.71749877929688,-52.9375
16.82024320751227,0.2588839828968048,-0.575107991695404,0.1176079958677291,-83.59750366210938,-67.98750305175781,-35.70000076293945
16.84053300631506,0.1854400038719177,-0.7568879723548889,0.1198039948940277,-109.6374969482422,-69.05500030517578,-20.71999931335449
16.86082280511785,0.1525000035762787,-0.7876319885253906,0.1795839965343475,-98.59500122070312,-58.08250045776367,-18.32250022888184
16.881112603920638,0.1634799987077713,-0.8000760078430176,0.2854799926280975,-80.0625,-51.79999923706055,-7.664999961853027
16.901402402723427,0.1998360008001327,-0.7895839810371399,0.3028039932250976,-59.150001525878906,-50.59249877929688,9.677499771118164
16.921692201526216,0.3020719885826111,-0.7258999943733215,0.3015840053558349,-40.72249984741211,-52.08000183105469,28.59499931335449
16.941982000329006,0.366487979888916,-0.7234599590301514,0.2864559888839721,-29.45249938964844,-48.5099983215332,44.345001220703125
16.962271799131795,0.3701480031013489,-0.8642479777336121,0.2481479942798614,-25.637500762939453,-41.45750045776367,52.51750183105469
16.982561597934584,0.3640480041503906,-1.1675399541854858,0.38332399725914,-23.76499938964844,-31.3075008392334,50.59249877929688
17.002851396737373,0.3484320044517517,-1.3676199913024902,0.4040639996528625,-11.199999809265137,-17.97249984741211,31.780000686645508
17.023141195540163,0.3696599900722503,-1.3329719305038452,0.4218759834766388,0.6825000047683716,-10.237500190734863,-1.5399999618530271
17.043430994342952,0.3494080007076263,-1.1348439455032349,0.3215920031070709,10.010000228881836,-2.572499990463257,-30.65999984741211
17.06372079314574,0.2200879901647567,-0.961847960948944,0.1820240020751953,8.470000267028809,0.2275000065565109,-33.932498931884766
17.08401059194853,0.2461960017681121,-1.0867760181427002,0.2542479932308197,6.982500076293945,-12.75749969482422,-23.012500762939453
17.10430039075132,0.2325319945812225,-1.3717679977416992,0.2125239968299865,30.13500022888184,-24.604999542236328,-21.1924991607666
17.12459018955411,0.1381039917469024,-1.5435439348220823,0.2008119970560073,59.185001373291016,-37.397499084472656,-31.342500686645508
17.144879988356898,-0.0907679945230484,-1.3300440311431885,0.0234239995479583,83.42250061035156,-46.619998931884766,-46.060001373291016
17.165169787159687,-0.3050000071525574,-0.8457039594650269,-0.1642120033502578,91.7874984741211,-40.407501220703125,-47.59999847412109
17.185459585962477,-0.0326960012316703,-0.7261439561843872,-0.010491999797523,81.86499786376953,-40.14500045776367,-25.725000381469727
17.205749384765266,0.3296439945697784,-0.9459879994392396,0.3037799894809723,69.0374984741211,-13.96500015258789,12.145000457763672
17.226039183568055,0.2703520059585571,-1.2075560092926023,0.3459919989109039,52.77999877929688,25.059999465942383,46.900001525878906
17.246328982370844,0.0963799953460693,-1.3378520011901855,0.4043079912662506,32.98749923706055,17.360000610351562,50.522499084472656
17.266618781173634,0.0605119988322258,-1.4066599607467651,0.3074399828910827,55.54500198364258,14.157500267028809,26.98500061035156
17.286908579976423,0.0119559997692704,-1.227563977241516,0.3057319819927215,92.43499755859376,26.89750099182129,5.599999904632568
17.307198378779212,0.0414799973368644,-0.9303719997406006,0.3457480072975158,92.81999969482422,31.342500686645508,4.235000133514404
17.327488177582,0.1071159988641738,-0.6917399764060974,0.3764919936656952,63.0,32.619998931884766,19.21500015258789
17.34777797638479,0.0993079990148544,-0.6622160077095032,0.3545320034027099,27.28249931335449,30.170000076293945,35.80500030517578
17.36806777518758,-0.0019519999623298,-0.6512359976768494,0.3154920041561126,9.817500114440918,30.957500457763672,43.27750015258789
17.38835757399037,-0.0780799984931945,-0.7056480050086975,0.3372080028057098,1.3125,33.810001373291016,43.71500015258789
17.40864737279316,-0.0705159977078437,-0.7337079644203186,0.374783992767334,0.0700000002980232,35.80500030517578,38.04500198364258
17.428937171595948,-0.0451399981975555,-0.5895040035247803,0.2871879935264587,-2.2049999237060547,32.88249969482422,18.5674991607666
17.449226970398737,-0.0239119995385408,-0.4250479936599731,0.3052439987659454,-18.725000381469727,22.854999542236328,12.914999961853027
17.469516769201526,0.0002439999952912,-0.3645359873771667,0.3581919968128204,-43.994998931884766,17.797500610351562,10.6225004196167
17.489806568004315,-0.0017079999670386,-0.4653079807758331,0.3962559998035431,-63.78749847412109,15.172499656677246,7.122499942779541
17.510096366807105,-0.0756400004029274,-0.6431840062141418,0.3969880044460296,-69.31749725341797,13.317500114440918,1.9424999952316284
17.530386165609894,-0.1041879951953888,-0.9303719997406006,0.3911319971084595,-67.19999694824219,9.65999984741211,-2.677500009536743
17.550675964412683,-0.0412359982728958,-1.2465959787368774,0.3943039774894714,-51.69499969482422,4.025000095367432,-5.862500190734863
17.570965763215472,0.119559995830059,-1.4708319902420044,0.4416399896144867,-20.8075008392334,2.9574999809265137,-0.4724999964237213
17.59125556201826,0.1466439962387085,-1.1629040241241455,0.4714079797267914,17.989999771118164,4.042500019073486,13.545000076293944
17.61154536082105,0.0319640003144741,-0.7432239651679993,0.4999559819698334,29.190000534057617,15.732500076293944,21.06999969482422
17.63183515962384,-0.0961359962821006,-0.7807999849319458,0.5794999599456787,14.454999923706056,31.412500381469727,20.33500099182129
17.65212495842663,-0.1856839954853058,-1.1460679769515991,0.6409879922866821,8.1899995803833,35.279998779296875,13.335000038146973
17.67241475722942,-0.3118319809436798,-1.5691639184951782,0.5048359632492065,20.667499542236328,27.52750015258789,9.467499732971191
17.692704556032208,-0.2269199937582016,-1.5435439348220823,0.4311479926109314,44.380001068115234,2.712500095367432,3.640000104904175
17.712994354834997,-0.1932480037212371,-1.218291997909546,0.3308639824390411,57.45249938964844,-7.244999885559082,-6.195000171661377
17.733284153637786,-0.0439199991524219,-0.7244359850883484,0.1920280009508133,66.32499694824219,8.539999961853027,-19.862499237060547
17.753573952440576,-0.0295239984989166,-0.614147961139679,0.0370879992842674,45.43000030517578,28.73500061035156,-28.857500076293945
17.773863751243365,-0.1405439972877502,-0.9625799655914308,-0.0168359987437725,20.212499618530277,21.332500457763672,-22.69750022888184
17.794153550046154,-0.2176479995250702,-1.1716879606246948,0.2762079834938049,15.417500495910645,0.5950000286102295,-8.819999694824219
17.814443348848943,-0.3730759918689728,-1.2217079401016235,0.4462759792804718,16.747499465942383,-33.58250045776367,-7.997499942779541
17.834733147651733,-0.2134999930858612,-1.0831159353256226,0.5302119851112366,28.350000381469727,-71.68000030517578,-25.637500762939453
17.855022946454522,-0.0178119987249374,-0.9769759774208068,0.4323679804801941,27.649999618530277,-78.62750244140625,-37.22249984741211
17.87531274525731,0.0500199981033802,-0.9169519543647766,0.3013399839401245,14.157500267028809,-71.94249725341797,-36.435001373291016
17.8956025440601,0.1100439950823783,-0.8476560115814209,0.2352159917354583,-1.1375000476837158,-65.57250213623047,-32.165000915527344
17.91589234286289,0.1861719936132431,-0.7607919573783875,0.2437559962272644,-10.114999771118164,-64.6624984741211,-24.07999992370605
17.93618214166568,0.2066679894924163,-0.7276079654693604,0.2418039888143539,-26.967500686645508,-69.68499755859375,-10.045000076293944
17.956471940468468,0.1947119981050491,-0.8173999786376953,0.2183799892663955,-43.505001068115234,-74.84750366210938,-0.3499999940395355
17.976761739271257,0.20032399892807,-0.8344799876213074,0.2205759882926941,-46.35750198364258,-75.04000091552734,-0.1924999952316284
17.997051538074047,0.1964199990034103,-0.7927559614181519,0.2537599802017212,-42.73500061035156,-67.67250061035156,-2.572499990463257
18.017341336876836,0.1605519950389862,-0.7939760088920593,0.2803559899330139,-40.09249877929688,-57.41749954223633,-0.7350000143051147
18.037631135679625,0.1866599917411804,-0.6317160129547119,0.2259439975023269,-36.8025016784668,-47.372501373291016,17.395000457763672
18.057920934482414,0.2095959931612014,-0.6287879943847656,0.1869039982557296,-47.52999877929688,-41.98250198364258,34.650001525878906
18.078210733285204,0.2047159969806671,-0.6980839967727661,0.2081319987773895,-58.55500030517578,-36.04999923706055,47.79249954223633
18.098500532087993,0.2005679905414581,-0.7949519753456116,0.2871879935264587,-63.647499084472656,-31.377500534057617,51.88750076293945
18.118790330890782,0.2276519984006881,-0.8818159699440002,0.2910920083522796,-63.665000915527344,-23.39750099182129,46.51499938964844
18.13908012969357,0.2930440008640289,-1.0062559843063354,0.2076440006494522,-64.13749694824219,-13.300000190734863,36.6974983215332
18.15936992849636,0.2156959921121597,-0.998203992843628,0.1576239913702011,-57.75,-1.3650000095367432,27.70249938964844
18.17965972729915,0.0814960002899169,-1.032364010810852,0.2064239978790283,-60.21749877929688,-5.110000133514404,25.462499618530277
18.19994952610194,0.0048799999058246,-1.17876398563385,0.3330599963665008,-58.310001373291016,-10.395000457763672,19.092500686645508
18.22023932490473,0.0424560010433197,-1.2919800281524658,0.4616479873657226,-39.39250183105469,-12.65250015258789,4.637499809265137
18.240529123707518,0.1227319985628128,-1.2480599880218506,0.5016639828681946,-12.774999618530272,-16.292499542236328,-8.574999809265137
18.260818922510307,0.1754359900951385,-1.1385040283203125,0.4143120050430298,4.53249979019165,-23.450000762939453,-14.90999984741211
18.281108721313096,0.148839995265007,-1.0411479473114014,0.3574599921703338,14.1225004196167,-30.065000534057617,-16.729999542236328
18.301398520115885,0.1520119905471801,-1.024067997932434,0.3594119846820831,12.827500343322754,-38.97249984741211,-13.404999732971191
18.321688318918675,0.2549799978733063,-1.108247995376587,0.2979239821434021,6.615000247955322,-46.74250030517578,-11.619999885559082
18.341978117721464,0.3494080007076263,-1.299787998199463,0.2391199916601181,2.817500114440918,-48.0724983215332,-13.300000190734863
18.362267916524253,0.359167993068695,-1.4537519216537476,0.2208199948072433,7.227499961853027,-44.09999847412109,-23.1875
18.382557715327042,0.3003639876842499,-1.4288640022277832,0.0793000012636184,22.71500015258789,-31.412500381469727,-30.78249931335449
18.40284751412983,0.2644959986209869,-1.2514759302139282,-0.0319640003144741,43.3650016784668,-11.672499656677246,-25.51499938964844
18.42313731293262,0.2081319987773895,-1.0892159938812256,0.0043919999152421,58.25749969482422,-13.737500190734863,-11.2524995803833
18.44342711173541,0.1198039948940277,-0.9625799655914308,0.0161039996892213,73.1500015258789,-31.13249969482422,6.212500095367432
