Time (seconds),acc_x,acc_y,acc_z,gyro_x,gyro_y,gyro_z
0.020166883539425084,-0.2178919911384582,-0.9723399877548218,0.056607998907566,-1.4524999856948853,0.1749999970197677,2.8350000381469727
0.04033376707885017,-0.2144759893417358,-0.9684360027313232,0.0517279990017414,-1.5225000381469729,0.1225000023841857,2.992500066757202
0.060500650618275253,-0.2098399996757507,-0.9635559916496276,0.0536799989640712,-1.8200000524520876,0.2275000065565109,2.852499961853028
0.08066753415770034,-0.2037400007247924,-0.9635559916496276,0.0527039989829063,-2.922499895095825,0.6474999785423279,2.799999952316284
0.10083441769712542,-0.196175992488861,-0.9686799645423888,0.047335997223854,-3.954999923706055,1.0149999856948853,2.712500095367432
0.12100130123655051,-0.1973959952592849,-0.97843998670578,0.0446520000696182,-4.409999847412109,1.347499966621399,2.432500123977661
0.1411681847759756,-0.2027639895677566,-0.986735999584198,0.0463600009679794,-4.514999866485596,1.7675000429153442,1.4524999856948853
0.16133506831540068,-0.2056919932365417,-0.9840520024299622,0.0351359993219375,-3.255000114440918,1.8899999856948853,0.7875000238418579
0.18150195185482576,-0.2164279967546463,-0.9862479567527772,0.0390399992465972,-1.9774999618530276,2.1700000762939453,0.6474999785423279
0.20166883539425084,-0.2232600003480911,-0.9869799613952636,0.0485559999942779,-1.0850000381469729,1.75,0.262499988079071
0.22183571893367593,-0.2259439975023269,-0.9806360006332396,0.0507519990205764,0.0350000001490116,0.7175000309944153,-0.0175000000745058
0.24200260247310101,-0.228872001171112,-0.972827970981598,0.0558759979903698,0.3849999904632568,-0.2100000083446502,0.0350000001490116
0.2621694860125261,-0.224723994731903,-0.9735599756240844,0.052216000854969,0.262499988079071,-1.0850000381469729,0.262499988079071
0.2823363695519512,-0.2225279957056045,-0.9691680073738098,0.0487999990582466,0.262499988079071,-1.5575000047683716,0.6650000214576721
0.30250325309137627,-0.2181359976530075,-0.965507984161377,0.0502640008926391,-0.0874999985098838,-1.995000004768372,0.7875000238418579
0.32267013663080135,-0.2152079939842224,-0.9677039980888368,0.0487999990582466,-0.6650000214576721,-2.065000057220459,0.7350000143051147
0.34283702017022644,-0.2120359987020492,-0.9703879952430724,0.0517279990017414,-1.3125,-1.995000004768372,0.5774999856948853
0.3630039037096515,-0.2130119949579239,-0.9813680052757264,0.0570959970355033,-2.065000057220459,-1.9774999618530276,0.8224999904632568
0.3831707872490766,-0.2134999930858612,-0.9698999524116516,0.0507519990205764,-1.8899999856948853,-1.8200000524520876,0.7699999809265137
0.4033376707885017,-0.2154520004987716,-0.9772199988365172,0.0456280000507831,-2.327500104904175,-1.5225000381469729,0.9100000262260436
0.4235045543279268,-0.2186239957809448,-0.9821000099182128,0.0463600009679794,-2.012500047683716,-1.5575000047683716,1.1725000143051147
0.44367143786735186,-0.2217959910631179,-0.9772199988365172,0.0434319972991943,-1.1375000476837158,-1.8200000524520876,1.2599999904632568
0.46383832140677694,-0.2225279957056045,-0.9730719923973083,0.0436760000884532,-0.6474999785423279,-2.309999942779541,1.1024999618530271
0.48400520494620203,-0.2239919900894165,-0.9745360016822816,0.0461159981787204,-0.5774999856948853,-2.6075000762939453,0.962499976158142
0.5041720884856271,-0.224723994731903,-0.9762439727783204,0.0427000001072883,-0.5774999856948853,-2.9749999046325684,0.9800000190734864
0.5243389720250522,-0.2237479984760284,-0.9730719923973083,0.0451399981975555,-0.5074999928474426,-3.2725000381469727,1.1200000047683716
0.5445058555644773,-0.2239919900894165,-0.9725840091705322,0.0453839972615242,-0.7524999976158142,-3.3600001335144043,0.9975000023841858
0.5646727391039024,-0.2186239957809448,-0.9718520045280457,0.0451399981975555,-0.8050000071525574,-3.5174999237060547,0.9800000190734864
0.5848396226433275,-0.2144759893417358,-0.9738039970397948,0.0431879982352256,-0.8400000333786011,-3.3424999713897705,1.1200000047683716
0.6050065061827525,-0.2132560014724731,-0.969655990600586,0.0444080010056495,-0.7175000309944153,-3.132499933242798,1.1549999713897705
0.6251733897221776,-0.2159399986267089,-0.9703879952430724,0.0414799973368644,-1.4524999856948853,-2.012500047683716,1.225000023841858
0.6453402732616027,-0.2193560004234314,-0.9755119681358336,0.0402599982917308,-1.6449999809265137,-1.662500023841858,1.1725000143051147
0.6655071568010278,-0.2217959910631179,-0.9764879941940308,0.0385520011186599,-1.3650000095367432,-1.4700000286102295,1.0149999856948853
0.6856740403404529,-0.2237479984760284,-0.977952003479004,0.037331998348236,-1.2074999809265137,-1.347499966621399,0.9800000190734864
0.705840923879878,-0.2252119928598404,-0.9791719913482666,0.0375759974122047,-0.8924999833106995,-1.1549999713897705,1.225000023841858
0.726007807419303,-0.2239919900894165,-0.9781959652900696,0.0351359993219375,-0.4200000166893005,-1.1549999713897705,1.4175000190734863
0.7461746909587281,-0.2232600003480911,-0.977463960647583,0.0324519984424114,-0.1574999988079071,-1.0149999856948853,1.5575000047683716
0.7663415744981532,-0.2200879901647567,-0.972827970981598,0.0331839993596077,-0.0175000000745058,-0.7699999809265137,1.4874999523162842
0.7865084580375783,-0.2208199948072433,-0.9718520045280457,0.0326960012316703,-0.0175000000745058,-0.5950000286102295,1.2949999570846558
0.8066753415770034,-0.226187989115715,-0.9674599766731262,0.0361119993031024,-0.1400000005960464,-0.4200000166893005,0.6650000214576721
0.8268422251164285,-0.2254559993743896,-0.9650200009346008,0.0370879992842674,-0.5074999928474426,-0.4375,0.3499999940395355
0.8470091086558535,-0.2217959910631179,-0.9698999524116516,0.0397720001637935,-1.0499999523162842,-0.3849999904632568,0.2800000011920929
0.8671759921952786,-0.220331996679306,-0.9747799634933472,0.0358680002391338,-1.1200000047683716,-0.5774999856948853,0.4200000166893005
0.8873428757347037,-0.2213079929351806,-0.9691680073738098,0.032940000295639,-0.7875000238418579,-0.6299999952316284,0.3675000071525574
0.9075097592741288,-0.2239919900894165,-0.9718520045280457,0.0351359993219375,-0.7875000238418579,-0.5600000023841858,0.1574999988079071
0.9276766428135539,-0.2222839891910553,-0.9869799613952636,0.0405040010809898,-0.8400000333786011,-0.5074999928474426,0.3149999976158142
0.947843526352979,-0.2208199948072433,-0.9674599766731262,0.0385520011186599,0.3675000071525574,-0.5600000023841858,0.7524999976158142
0.9680104098924041,-0.2171600013971328,-0.9616039991378784,0.0348920002579689,0.5774999856948853,-0.1400000005960464,-0.2275000065565109
0.9881772934318291,-0.2193560004234314,-0.977952003479004,0.0366000011563301,-0.2975000143051147,0.1400000005960464,-0.1574999988079071
1.0083441769712542,-0.220331996679306,-0.972827970981598,0.0348920002579689,0.5249999761581421,0.4724999964237213,-0.1924999952316284
1.0285110605106793,-0.2200879901647567,-0.9698999524116516,0.0356239974498748,0.6474999785423279,0.4550000131130218,-0.5249999761581421
1.0486779440501044,-0.2242359966039657,-0.974291980266571,0.0390399992465972,0.4724999964237213,0.6474999785423279,-0.6650000214576721
1.0688448275895295,-0.226187989115715,-0.972827970981598,0.0378200002014637,0.7699999809265137,0.6299999952316284,-0.5950000286102295
1.0890117111289546,-0.2264319956302642,-0.9716079831123352,0.0387960001826286,0.7350000143051147,0.5425000190734863,-0.5425000190734863
1.1091785946683796,-0.2274079918861389,-0.973315954208374,0.038307998329401,0.6825000047683716,0.5249999761581421,-0.4550000131130218
1.1293454782078047,-0.2286279946565628,-0.9730719923973083,0.0395279973745346,0.4375,0.4025000035762787,-0.4200000166893005
1.1495123617472298,-0.2317999899387359,-0.9706319570541382,0.0392839983105659,0.3849999904632568,0.1749999970197677,-0.3149999976158142
1.169679245286655,-0.2354599982500076,-0.9716079831123352,0.0397720001637935,0.2800000011920929,-0.0874999985098838,-0.1574999988079071
1.18984612882608,-0.2315559983253479,-0.9706319570541382,0.0390399992465972,0.1924999952316284,-0.4550000131130218,0.0175000000745058
1.210013012365505,-0.2235039919614792,-0.9711199998855592,0.0402599982917308,-0.612500011920929,-0.699999988079071,0.1050000041723251
1.2301798959049302,-0.2237479984760284,-0.9713639616966248,0.0358680002391338,-0.9449999928474426,-0.4724999964237213,0.2450000047683715
1.2503467794443552,-0.226187989115715,-0.975268006324768,0.032940000295639,-0.962499976158142,-0.0700000002980232,0.2800000011920929
1.2705136629837803,-0.2281399965286255,-0.977952003479004,0.0358680002391338,-0.8050000071525574,0.1400000005960464,0.0874999985098838
1.2906805465232054,-0.2259439975023269,-0.9716079831123352,0.0385520011186599,-0.3499999940395355,0.2450000047683715,0.0874999985098838
1.3108474300626305,-0.2296039909124374,-0.9720959663391112,0.0361119993031024,-0.5425000190734863,0.3149999976158142,0.2450000047683715
1.3310143136020556,-0.2308239936828613,-0.9762439727783204,0.0304999984800815,-0.4375,0.2100000083446502,0.4550000131130218
1.3511811971414807,-0.2313119918107986,-0.9740479588508606,0.0297679994255304,-0.2800000011920929,0.2100000083446502,0.0700000002980232
1.3713480806809057,-0.2308239936828613,-0.973315954208374,0.0314759984612464,0.1050000041723251,0.0700000002980232,-0.0175000000745058
1.3915149642203308,-0.2296039909124374,-0.9718520045280457,0.0312319993972778,0.5249999761581421,0.1050000041723251,0.1400000005960464
1.411681847759756,-0.2296039909124374,-0.97599995136261,0.0322079993784427,0.5774999856948853,0.2275000065565109,0.1924999952316284
1.431848731299181,-0.2291159927845001,-0.977952003479004,0.0385520011186599,0.6299999952316284,0.3149999976158142,0.0350000001490116
1.452015614838606,-0.2298479974269867,-0.9720959663391112,0.0363559983670711,0.8224999904632568,0.2100000083446502,-0.0525000020861625
1.4721824983780312,-0.2291159927845001,-0.9708759784698486,0.0356239974498748,0.8575000166893005,0.2450000047683715,0.2800000011920929
1.4923493819174563,-0.2264319956302642,-0.9735599756240844,0.0375759974122047,0.6650000214576721,0.3675000071525574,0.4025000035762787
1.5125162654568813,-0.2296039909124374,-0.970143973827362,0.033671997487545,0.612500011920929,0.5425000190734863,0.1400000005960464
1.5326831489963064,-0.2317999899387359,-0.9677039980888368,0.0346480011940002,0.8924999833106995,0.3675000071525574,-0.0874999985098838
1.5528500325357315,-0.2330199927091598,-0.965507984161377,0.0363559983670711,0.9100000262260436,0.2100000083446502,-0.0874999985098838
1.5730169160751566,-0.2330199927091598,-0.9647759795188904,0.0392839983105659,0.5950000286102295,-0.1225000023841857,-0.1050000041723251
1.5931837996145817,-0.2313119918107986,-0.96697199344635,0.0407480001449584,0.0700000002980232,-0.4025000035762787,-0.1225000023841857
1.6133506831540068,-0.2278959900140762,-0.9667279720306396,0.0390399992465972,-0.3499999940395355,-0.6299999952316284,-0.1749999970197677
1.6335175666934318,-0.226187989115715,-0.9745360016822816,0.0392839983105659,-0.875,-0.8050000071525574,-0.0874999985098838
1.653684450232857,-0.2210640013217926,-0.9745360016822816,0.0351359993219375,-0.5425000190734863,-0.9100000262260436,-0.0874999985098838
1.673851333772282,-0.2181359976530075,-0.9757559895515442,0.0319640003144741,-0.1924999952316284,-0.6474999785423279,-0.2800000011920929
1.694018217311707,-0.2193560004234314,-0.9684360027313232,0.0368440002202987,0.4200000166893005,-0.3675000071525574,-0.4375
1.7141851008511322,-0.2235039919614792,-0.977463960647583,0.0400159992277622,0.0700000002980232,-0.2100000083446502,-0.5074999928474426
1.7343519843905573,-0.2239919900894165,-0.974291980266571,0.0436760000884532,0.2975000143051147,-0.1400000005960464,-0.7175000309944153
1.7545188679299824,-0.2208199948072433,-0.9725840091705322,0.042943999171257,0.4375,-0.2450000047683715,-0.6299999952316284
1.7746857514694074,-0.2230159938335418,-0.9703879952430724,0.0427000001072883,0.699999988079071,-0.1574999988079071,-0.5249999761581421
1.7948526350088325,-0.2259439975023269,-0.9689239859580994,0.0422119982540607,0.9275000095367432,-0.1749999970197677,-0.4200000166893005
1.8150195185482576,-0.2186239957809448,-0.9679479598999025,0.041967999190092,0.8050000071525574,-0.2100000083446502,-0.6650000214576721
1.8351864020876827,-0.2186239957809448,-0.96697199344635,0.0434319972991943,0.4025000035762787,-0.2100000083446502,-0.699999988079071
1.8553532856271078,-0.2200879901647567,-0.9703879952430724,0.0397720001637935,-0.3675000071525574,0.0525000020861625,-0.8224999904632568
1.8755201691665329,-0.2227720022201538,-0.9772199988365172,0.0385520011186599,-0.6474999785423279,0.2800000011920929,-0.7699999809265137
1.895687052705958,-0.224480003118515,-0.9808799624443054,0.0409919992089271,-0.4550000131130218,0.4550000131130218,-0.6825000047683716
1.915853936245383,-0.2232600003480911,-0.977463960647583,0.0400159992277622,0.1749999970197677,0.262499988079071,-0.6825000047683716
1.9360208197848081,-0.2200879901647567,-0.9747799634933472,0.042943999171257,0.5600000023841858,0.2100000083446502,-0.4550000131130218
1.9561877033242332,-0.2205759882926941,-0.9713639616966248,0.0444080010056495,0.5600000023841858,0.2800000011920929,-0.3499999940395355
1.9763545868636583,-0.2215519994497299,-0.9706319570541382,0.041967999190092,0.4025000035762787,0.2800000011920929,-0.262499988079071
1.9965214704030834,-0.224480003118515,-0.9689239859580994,0.0397720001637935,0.2100000083446502,0.2800000011920929,-0.1400000005960464
2.0166883539425084,-0.2281399965286255,-0.9684360027313232,0.0370879992842674,0.0700000002980232,0.2100000083446502,-0.1400000005960464
2.0368552374819338,-0.228872001171112,-0.9703879952430724,0.0358680002391338,0.1050000041723251,0.0350000001490116,-0.2450000047683715
2.057022121021359,-0.226187989115715,-0.9698999524116516,0.0375759974122047,0.2450000047683715,-0.2275000065565109,-0.3149999976158142
2.0771890045607844,-0.2264319956302642,-0.9713639616966248,0.0392839983105659,0.1924999952316284,-0.3675000071525574,-0.2975000143051147
2.0973558881002097,-0.2274079918861389,-0.9725840091705322,0.038307998329401,0.1924999952316284,-0.5774999856948853,-0.2450000047683715
2.117522771639635,-0.224723994731903,-0.9735599756240844,0.0390399992465972,0.2975000143051147,-0.699999988079071,-0.2450000047683715
2.1376896551790603,-0.2208199948072433,-0.9735599756240844,0.0397720001637935,0.332500010728836,-0.7875000238418579,-0.2275000065565109
2.1578565387184856,-0.2193560004234314,-0.9745360016822816,0.0380639992654323,0.2975000143051147,-0.7699999809265137,-0.2275000065565109
2.178023422257911,-0.220331996679306,-0.9745360016822816,0.038307998329401,0.3675000071525574,-0.4900000095367431,-0.2800000011920929
2.198190305797336,-0.2215519994497299,-0.972827970981598,0.0397720001637935,0.3675000071525574,-0.3499999940395355,-0.262499988079071
2.2183571893367615,-0.2239919900894165,-0.972827970981598,0.0409919992089271,0.4025000035762787,-0.3499999940395355,-0.2450000047683715
2.238524072876187,-0.2249680012464523,-0.9706319570541382,0.0444080010056495,0.4375,-0.4025000035762787,-0.1574999988079071
2.258690956415612,-0.2239919900894165,-0.9716079831123352,0.0444080010056495,0.2800000011920929,-0.5600000023841858,-0.0350000001490116
2.2788578399550374,-0.2193560004234314,-0.9713639616966248,0.0375759974122047,-0.4025000035762787,-0.4025000035762787,0.1225000023841857
2.2990247234944627,-0.2174039930105209,-0.9716079831123352,0.0363559983670711,-0.5074999928474426,-0.1225000023841857,-0.0700000002980232
2.319191607033888,-0.2222839891910553,-0.9723399877548218,0.0385520011186599,-0.1400000005960464,0.1749999970197677,0.1924999952316284
2.3393584905733134,-0.2200879901647567,-0.977463960647583,0.0402599982917308,-0.5249999761581421,0.4025000035762787,-0.1400000005960464
2.3595253741127387,-0.2198439985513687,-0.9706319570541382,0.0400159992277622,0.1400000005960464,0.4900000095367431,-0.1574999988079071
2.379692257652164,-0.2213079929351806,-0.9718520045280457,0.0390399992465972,0.2100000083446502,0.6299999952316284,0.1749999970197677
2.3998591411915893,-0.218868002295494,-0.9738039970397948,0.0346480011940002,0.0525000020861625,0.9449999928474426,-0.262499988079071
2.4200260247310146,-0.2198439985513687,-0.9718520045280457,0.0409919992089271,0.6474999785423279,1.1024999618530271,0.0175000000745058
2.44019290827044,-0.2220399975776672,-0.9794159531593324,0.0414799973368644,0.1574999988079071,1.1549999713897705,-0.2450000047683715
2.460359791809865,-0.2227720022201538,-0.9723399877548218,0.0375759974122047,0.4550000131130218,1.0674999952316284,-0.5074999928474426
2.4805266753492905,-0.2237479984760284,-0.9711199998855592,0.0387960001826286,0.8400000333786011,1.0499999523162842,-0.1924999952316284
2.500693558888716,-0.2235039919614792,-0.9725840091705322,0.0361119993031024,0.6825000047683716,1.0149999856948853,-0.2100000083446502
2.520860442428141,-0.2254559993743896,-0.9711199998855592,0.0358680002391338,0.8224999904632568,0.9100000262260436,-0.1400000005960464
2.5410273259675664,-0.2235039919614792,-0.9791719913482666,0.0358680002391338,0.0700000002980232,0.8050000071525574,-0.4724999964237213
2.5611942095069917,-0.2256999909877777,-0.9674599766731262,0.038307998329401,0.5249999761581421,0.7699999809265137,-0.5425000190734863
2.581361093046417,-0.2266760021448135,-0.9694119691848756,0.0361119993031024,0.262499988079071,0.6474999785423279,-0.2275000065565109
2.6015279765858423,-0.2230159938335418,-0.9750239849090576,0.0346480011940002,-0.0874999985098838,0.9275000095367432,-0.1574999988079071
2.6216948601252676,-0.2222839891910553,-0.975268006324768,0.0339160002768039,0.0350000001490116,1.4175000190734863,-0.2275000065565109
2.641861743664693,-0.220331996679306,-0.9764879941940308,0.0319640003144741,0.2275000065565109,1.75,-0.2100000083446502
2.6620286272041183,-0.2208199948072433,-0.9799039959907532,0.0353799983859062,0.3675000071525574,2.0999999046325684,-0.0175000000745058
2.6821955107435436,-0.2220399975776672,-0.9828319549560548,0.0326960012316703,0.4724999964237213,2.712500095367432,0.4025000035762787
2.702362394282969,-0.2237479984760284,-0.9918599724769592,0.0248879995197057,0.699999988079071,3.220000028610229,0.8924999833106995
2.722529277822394,-0.224723994731903,-0.9901520013809204,0.0231800004839897,1.662500023841858,3.587500095367432,1.277500033378601
2.7426961613618195,-0.2327760010957718,-0.9821000099182128,0.0214719995856285,2.7300000190734863,3.692500114440918,1.627500057220459
2.762863044901245,-0.2357039898633957,-0.9720959663391112,0.0187879987061023,3.3424999713897705,3.5,1.662500023841858
2.78302992844067,-0.2357039898633957,-0.9603840112686156,0.0178119987249374,3.692500114440918,3.2725000381469727,1.7324999570846558
2.8031968119800954,-0.2349720001220703,-0.954039990901947,0.0212280005216598,3.3424999713897705,2.922499895095825,1.8725000619888303
2.8233636955195207,-0.2359479963779449,-0.95306396484375,0.0207399986684322,2.0824999809265137,2.5899999141693115,1.5225000381469729
2.843530579058946,-0.2339959889650344,-0.9523319602012634,0.023667998611927,1.1549999713897705,2.1524999141693115,0.9800000190734864
2.8636974625983713,-0.2317999899387359,-0.9569680094718932,0.0241560004651546,0.332500010728836,1.8025000095367432,0.262499988079071
2.8838643461377966,-0.2325319945812225,-0.9589200019836426,0.028303999453783,-0.1400000005960464,1.1549999713897705,-0.5600000023841858
2.904031229677222,-0.2337519973516464,-0.9657520055770874,0.0258639995008707,-0.4724999964237213,0.5249999761581421,-0.875
2.9241981132166472,-0.2371679991483688,-0.9777079820632936,0.0331839993596077,-0.612500011920929,-0.3499999940395355,-1.0499999523162842
2.9443649967560725,-0.2454639971256256,-0.9882000088691713,0.0385520011186599,-0.4375,-1.190000057220459,-0.962499976158142
2.964531880295498,-0.244731992483139,-1.0025960206985474,0.0331839993596077,-0.1749999970197677,-1.5399999618530271,0.0175000000745058
2.984698763834923,-0.2569319903850555,-1.0091840028762815,0.0134199997410178,0.9275000095367432,-1.4700000286102295,2.0999999046325684
3.0048656473743485,-0.2483920007944107,-0.9813680052757264,-0.0148839997127652,4.795000076293945,-0.5425000190734863,6.597499847412109
3.0250325309137738,-0.2249680012464523,-0.9657520055770874,-0.0175679996609687,5.09250020980835,1.399999976158142,7.71750020980835
3.045199414453199,-0.2349720001220703,-0.9657520055770874,-0.0246439985930919,3.0274999141693115,4.21750020980835,7.962500095367432
3.0653662979926244,-0.2383880019187927,-0.9677039980888368,-0.0268399994820356,0.3849999904632568,4.182499885559082,7.192500114440918
3.0855331815320497,-0.2564440071582794,-0.9703879952430724,-0.0163480006158351,-1.924999952316284,3.4825000762939453,6.247499942779541
3.105700065071475,-0.2998760044574737,-0.9740479588508606,-0.0258639995008707,-0.699999988079071,3.7100000381469727,4.427500247955322
3.1258669486109003,-0.3320840001106262,-0.9537959694862366,-0.0339160002768039,4.602499961853027,1.190000057220459,0.4025000035762787
3.1460338321503256,-0.3594119846820831,-0.9335439801216124,-0.0256199985742568,9.170000076293944,-3.954999923706055,-3.4825000762939453
3.166200715689751,-0.3730759918689728,-0.9142679572105408,0.0060999998822808,11.532500267028809,-9.9399995803833,-5.337500095367432
3.1863675992291762,-0.3969880044460296,-0.924027979373932,0.0141519997268915,9.327500343322754,-15.050000190734863,-5.372499942779541
3.2065344827686015,-0.3921079933643341,-0.9459879994392396,0.0134199997410178,5.284999847412109,-21.665000915527344,-3.9375
3.226701366308027,-0.3882039785385132,-1.0030839443206787,-0.0134199997410178,0.3149999976158142,-25.042499542236328,-0.2100000083446502
3.246868249847452,-0.3903999924659729,-1.0379760265350342,-0.0539239980280399,-0.7524999976158142,-28.38500022888184,4.585000038146973
3.2670351333868775,-0.3691720068454742,-1.029191970825195,-0.0602679997682571,1.4175000190734863,-33.31999969482422,8.225000381469727
3.2872020169263028,-0.3598999977111816,-0.9991799592971802,-0.061243999749422,4.287499904632568,-35.45500183105469,11.322500228881836
3.307368900465728,-0.3508719801902771,-0.9616039991378784,-0.0653920024633407,7.822500228881836,-36.66249847412109,12.162500381469728
3.3275357840051534,-0.2547360062599182,-0.8810839653015137,0.0046359999105334,10.762499809265137,-37.22249984741211,10.675000190734863
3.3477026675445787,-0.2025199979543686,-0.7988559603691101,0.0905239954590797,4.409999847412109,-33.70500183105469,11.4975004196167
3.367869551084004,-0.2071560025215149,-0.794219970703125,0.1263919919729232,-13.05500030517578,-31.44750022888184,15.697500228881836
3.3880364346234293,-0.2171600013971328,-0.8735199570655823,0.1237079948186874,-29.295000076293945,-30.677499771118164,20.614999771118164
3.4082033181628546,-0.1798280030488968,-0.9755119681358336,0.1254159957170486,-36.92499923706055,-29.08500099182129,23.8700008392334
3.42837020170228,-0.1534759998321533,-1.028216004371643,0.1366399973630905,-34.877498626708984,-25.479999542236328,23.747499465942383
3.448537085241705,-0.1654319912195205,-1.0445640087127686,0.1293199956417083,-28.104999542236328,-21.262500762939453,18.655000686645508
3.4687039687811305,-0.1505479961633682,-1.0516400337219238,0.1076039969921112,-19.28499984741211,-15.172499656677246,10.167500495910645
3.488870852320556,-0.124439999461174,-0.985759973526001,0.0856439992785453,-5.005000114440918,-9.047499656677246,0.2450000047683715
3.509037735859981,-0.1317600011825561,-0.88401198387146,0.1056519970297813,6.177500247955322,-3.132499933242798,-8.609999656677246
3.5292046193994064,-0.1559159904718399,-0.8896239995956421,0.1173639968037605,7.699999809265137,2.414999961853028,-15.154999732971191
3.5493715029388317,-0.2030079960823059,-0.9235399961471558,0.1088239997625351,8.154999732971191,5.897500038146973,-18.07749938964844
3.569538386478257,-0.2393639981746673,-0.9520879983901978,0.0914999991655349,5.425000190734863,7.0,-17.3075008392334
3.5897052700176824,-0.2754760086536407,-0.9511119723320008,0.0617319978773593,0.6299999952316284,8.470000267028809,-15.609999656677246
3.6098721535571077,-0.3398919999599457,-1.0033279657363892,0.0314759984612464,-4.375,9.835000038146973,-15.4350004196167
3.630039037096533,-0.3540439903736114,-0.9935680031776428,0.037331998348236,-0.4375,6.090000152587891,-18.042499542236328
3.6502059206359583,-0.3613640069961548,-0.9433040022850036,0.0109799997881054,6.422500133514404,0.2975000143051147,-20.42250061035156
3.6703728041753836,-0.3762480020523071,-0.9274439811706544,-0.0026839999482035,9.975000381469728,-4.882500171661377,-20.71999931335449
3.690539687714809,-0.3594119846820831,-0.98990797996521,-0.0219599995762109,8.907500267028809,-12.72249984741211,-15.015000343322754
3.710706571254234,-0.3313519954681396,-0.9625799655914308,-0.0553879998624324,12.267499923706056,-14.47249984741211,-10.09749984741211
3.7308734547936595,-0.3111000061035156,-0.9223200082778932,-0.0819839984178543,11.322500228881836,-13.772500038146973,-8.399999618530273
3.751040338333085,-0.3003639876842499,-0.9372040033340454,-0.0980879962444305,7.647500038146973,-12.425000190734863,-8.452500343322754
3.77120722187251,-0.317931979894638,-0.901091992855072,-0.090279996395111,8.609999656677246,-10.517499923706056,-9.9399995803833
3.7913741054119354,-0.338916003704071,-0.8844999670982361,-0.0807639956474304,6.702499866485596,-9.029999732971191,-11.112500190734863
3.8115409889513607,-0.3559959828853607,-0.8647359609603882,-0.0900359973311424,4.182499885559082,-8.890000343322754,-12.057499885559082
3.831707872490786,-0.3689279854297638,-0.8322839736938477,-0.1368840038776397,-0.0700000002980232,-9.484999656677246,-12.949999809265137
3.8518747560302113,-0.3738079965114593,-0.8666880130767822,-0.1461559981107711,-7.804999828338623,-10.02750015258789,-11.567500114440918
3.8720416395696367,-0.3508719801902771,-0.896943986415863,-0.114436000585556,-11.130000114440918,-9.362500190734863,-9.22249984741211
3.892208523109062,-0.3359879851341247,-0.8374080061912537,-0.143227994441986,-11.970000267028809,-9.380000114440918,-8.102499961853027
3.9123754066484873,-0.2886520028114319,-0.8252080082893372,-0.1481079906225204,-19.46000099182129,-7.210000038146973,-6.807499885559082
3.9325422901879126,-0.2154520004987716,-0.941107988357544,-0.1266359984874725,-28.13999938964844,0.9800000190734864,-2.1524999141693115
3.952709173727338,-0.1083360016345977,-1.1721760034561155,-0.0568519979715347,-27.684999465942383,13.545000076293944,7.017499923706055
3.972876057266763,-0.0619760006666183,-1.2780719995498655,0.0295239984989166,-11.9350004196167,30.362499237060547,16.99250030517578
3.9930429408061885,-0.0590479969978332,-1.4103199243545532,0.0627079978585243,4.724999904632568,49.42000198364258,30.78249931335449
4.013209824345614,0.0051239999011158,-1.3990960121154783,0.0463600009679794,32.252498626708984,62.93000030517578,46.21749877929688
4.033376707885039,0.1066280007362365,-1.1463119983673096,-0.0448959991335868,57.22499847412109,68.26750183105469,57.18999862670898
4.053543591424464,0.191783994436264,-0.8315519690513611,-0.0700279995799064,60.567501068115234,71.95999908447266,59.1150016784668
4.07371047496389,-0.1149239987134933,-0.8234999775886536,-0.0102479998022317,42.209999084472656,93.16999816894533,48.9474983215332
4.093877358503315,-0.517524003982544,-0.974291980266571,0.2139879912137985,26.40749931335449,80.29000091552734,28.57749938964844
4.11404424204274,-0.7180919647216797,-1.0704280138015747,0.3342799842357635,18.602500915527344,53.04249954223633,18.34000015258789
4.134211125582166,-0.6407439708709717,-1.154852032661438,0.3457480072975158,13.387499809265137,25.287500381469727,14.244999885559082
4.154378009121591,-0.3921079933643341,-1.059448003768921,0.2705959975719452,21.45499992370605,2.012500047683716,4.900000095367432
4.174544892661016,-0.1261480003595352,-1.0130879878997805,0.1861719936132431,25.602500915527344,-12.477499961853027,-13.649999618530272
4.1947117762004416,0.0358680002391338,-1.1226439476013184,0.099551998078823,10.90250015258789,0.6474999785423279,-28.280000686645508
4.214878659739867,-0.0317199975252151,-1.054811954498291,0.1083360016345977,5.494999885559082,7.787499904632568,-22.61000061035156
4.235045543279292,-0.1249279975891113,-0.9030439853668212,0.1039439961314201,2.012500047683716,12.5649995803833,-18.95249938964844
4.2552124268187175,-0.2108159959316253,-0.7995879650115967,0.1073599979281425,-2.922499895095825,13.720000267028809,-19.72249984741211
4.275379310358143,-0.2918239831924438,-0.7934879660606384,0.1385920047760009,-8.907500267028809,12.407500267028809,-19.54750061035156
4.295546193897568,-0.3406240046024322,-0.7732359766960144,0.163235992193222,-7.017499923706055,6.177500247955322,-14.262499809265137
4.315713077436993,-0.2505879998207092,-0.7185800075531006,0.1705559939146042,-3.7274999618530273,-0.0700000002980232,-4.340000152587891
4.335879960976419,-0.1971519887447357,-0.716871976852417,0.1212679967284202,-6.755000114440918,-1.8550000190734863,3.884999990463257
4.356046844515844,-0.1468880027532577,-0.7315120100975037,0.0661239996552467,-7.105000019073486,-3.202500104904175,10.342499732971191
4.376213728055269,-0.1249279975891113,-0.8012959957122803,0.0932080000638961,-7.105000019073486,2.414999961853028,16.082500457763672
4.396380611594695,-0.142984002828598,-0.9054839611053468,0.1283439993858337,-12.074999809265137,7.454999923706055,19.63500022888184
4.41654749513412,-0.1590880006551742,-0.9703879952430724,0.1232199966907501,-12.635000228881836,11.602499961853027,26.70499992370605
4.436714378673545,-0.1993480026721954,-1.0748199224472046,0.1259039938449859,-12.145000457763672,18.287500381469727,33.932498931884766
4.4568812622129705,-0.2125239968299865,-1.1499719619750977,0.1010159999132156,-4.53249979019165,23.729999542236328,35.57749938964844
4.477048145752396,-0.1983719915151596,-1.142408013343811,0.0478239990770816,9.99250030517578,28.57749938964844,33.3025016784668
4.497215029291821,-0.1898320019245147,-1.1421639919281006,0.0265959985554218,19.967500686645508,31.36000061035156,27.15999984741211
4.5173819128312465,-0.1839759945869445,-1.0604239702224731,-0.0117119997739791,29.977500915527344,33.54750061035156,20.42250061035156
4.537548796370672,-0.2039839923381805,-1.001376032829285,-0.0448959991335868,31.07999992370605,36.400001525878906,15.539999961853027
4.557715679910097,-0.2474159896373748,-0.9259799718856812,-0.0451399981975555,27.545000076293945,40.95000076293945,11.987500190734863
4.577882563449522,-0.2459519952535629,-0.8932839632034302,-0.0578279979526996,18.74250030517578,44.380001068115234,9.012499809265137
4.598049446988948,-0.2769399881362915,-0.8420439958572388,-0.018300000578165,7.822500228881836,49.227500915527344,6.492499828338623
4.618216330528373,-0.3003639876842499,-0.8605879545211792,-0.0190319996327161,-7.105000019073486,50.540000915527344,5.635000228881836
4.638383214067798,-0.2979239821434021,-0.8664439916610718,-0.0568519979715347,-16.99250030517578,50.24250030517578,6.264999866485596
4.658550097607224,-0.3045119941234588,-0.909875988960266,-0.0732000023126602,-22.88999938964844,51.17000198364258,9.047499656677246
4.678716981146649,-0.2942639887332916,-0.9364719986915588,-0.1273680031299591,-22.137500762939453,51.25749969482422,12.18000030517578
4.698883864686074,-0.2730360031127929,-0.93012797832489,-0.2027639895677566,-15.27750015258789,51.69499969482422,15.925000190734863
4.7190507482254995,-0.2730360031127929,-0.879863977432251,-0.2715719938278198,-7.735000133514404,52.185001373291016,20.07250022888184
4.739217631764925,-0.2986559867858886,-0.8847439885139465,-0.297679990530014,-4.497499942779541,53.44499969482422,23.905000686645508
4.75938451530435,-0.3735640048980713,-0.8496080040931702,-0.285968005657196,-2.117500066757202,53.27000045776367,24.88500022888184
4.7795513988437754,-0.3977199792861938,-0.9354959726333618,-0.1703120023012161,-9.100000381469728,43.41749954223633,20.649999618530277
4.799718282383201,-0.7529839873313904,-1.1755919456481934,-0.1256600022315979,-4.96999979019165,15.8725004196167,-17.010000228881836
4.819885165922626,-1.0440759658813477,-0.974291980266571,0.0907679945230484,18.357500076293945,-11.74250030517578,-42.087501525878906
4.840052049462051,-0.8847439885139465,-0.7932440042495728,0.2459519952535629,26.774999618530277,-41.82500076293945,-46.35750198364258
4.860218933001477,-0.5999959707260132,-0.8100799918174744,0.3020719885826111,18.059999465942383,-41.40499877929688,-35.89250183105469
4.880385816540902,-0.3823480010032654,-0.8640039563179016,0.3118319809436798,1.2599999904632568,-37.45000076293945,-21.64750099182129
4.900552700080327,-0.2339959889650344,-1.1062959432601929,0.3433080017566681,-26.075000762939453,-29.575000762939453,-12.827500343322754
4.920719583619753,-0.3174439966678619,-1.4059280157089231,0.3762480020523071,-37.36249923706055,-12.792500495910645,-5.494999885559082
4.940886467159178,-0.4147999882698059,-1.4452120065689087,0.3911319971084595,-14.717499732971191,-3.954999923706055,4.917500019073486
4.961053350698603,-0.4199239909648895,-1.1663199663162231,0.3606320023536682,17.97249984741211,-0.962499976158142,18.53249931335449
4.9812202342380285,-0.3657560050487518,-0.8991400003433228,0.2957279980182647,35.33250045776367,3.762500047683716,29.854999542236328
5.001387117777454,-0.4167519807815552,-0.7224839925765991,0.230335995554924,34.26499938964844,12.3725004196167,31.815000534057617
5.021554001316879,-0.3694159984588623,-0.6741719841957092,0.1837320029735565,23.625,15.960000038146973,27.755001068115234
5.041720884856304,-0.2964600026607513,-0.6441599726676941,0.1751919984817505,18.270000457763672,22.592500686645508,26.18000030517578
5.06188776839573,-0.269131988286972,-0.610975980758667,0.1437159925699234,13.614999771118164,32.165000915527344,24.65749931335449
5.082054651935155,-0.2864559888839721,-0.643671989440918,0.1112639978528022,2.327500104904175,37.22249984741211,17.202499389648438
5.10222153547458,-0.3828359842300415,-0.7097960114479065,0.1166319996118545,-4.8125,40.337501525878906,8.067500114440918
5.122388419014006,-0.4779959917068481,-0.7768959999084473,0.1134599968791008,-5.740000247955322,36.85499954223633,-2.1700000762939453
5.142555302553431,-0.5348479747772217,-0.8610759973526001,0.0785679966211319,-4.09499979019165,26.915000915527344,-13.037500381469728
5.162722186092856,-0.5306999683380127,-0.8642479777336121,0.0361119993031024,2.345000028610229,12.18000030517578,-21.82250022888184
5.182889069632282,-0.5209400057792664,-0.8571720123291016,0.0241560004651546,-0.0700000002980232,-10.43000030517578,-23.8174991607666
5.203055953171707,-0.5285040140151978,-0.8818159699440002,0.0331839993596077,-5.460000038146973,-21.979999542236328,-21.612499237060547
5.223222836711132,-0.5389959812164307,-0.9106079936027528,0.0068319998681545,-10.3774995803833,-29.34749984741211,-19.530000686645508
5.2433897202505575,-0.5272839665412903,-0.9198799729347228,-0.0165919996798038,-12.477499961853027,-36.57500076293945,-17.219999313354492
5.263556603789983,-0.4609159827232361,-0.928663969039917,0.0131759997457265,-15.24250030517578,-42.665000915527344,-14.262499809265137
5.283723487329408,-0.4550600051879883,-0.9193919897079468,0.0043919999152421,-18.112499237060547,-44.747501373291016,-11.357500076293944
5.303890370868833,-0.4592079818248749,-0.8586359620094299,-0.0119559997692704,-19.162500381469727,-48.5625,-10.850000381469728
5.324057254408259,-0.4467639923095703,-0.8713240027427673,0.0124439997598528,-23.239999771118164,-47.14500045776367,-8.855000495910645
5.344224137947684,-0.427731990814209,-0.9235399961471558,0.0341599993407726,-24.920000076293945,-47.3025016784668,-6.510000228881836
5.364391021487109,-0.3962559998035431,-0.9096319675445556,0.0207399986684322,-21.59499931335449,-50.48749923706055,-6.965000152587891
5.384557905026535,-0.4004040062427521,-0.8591240048408508,0.0107359997928142,-19.040000915527344,-50.942501068115234,-13.440000534057615
5.40472478856596,-0.4165079891681671,-0.8693720102310181,0.0121999997645616,-20.77250099182129,-50.24250030517578,-17.149999618530273
5.424891672105385,-0.423583984375,-0.8708359599113464,0.0034159999340772,-22.1200008392334,-52.43000030517578,-20.52750015258789
5.445058555644811,-0.4435919821262359,-0.8552199602127075,-0.0048799999058246,-24.46500015258789,-55.650001525878906,-22.1200008392334
5.465225439184236,-0.4548159837722778,-0.8500959873199463,-0.0141519997268915,-27.93000030517578,-60.462501525878906,-23.030000686645508
5.485392322723661,-0.4516440033912658,-0.8315519690513611,-0.0241560004651546,-29.924999237060547,-65.74749755859375,-24.622499465942383
5.5055592062630865,-0.4367599785327911,-0.8525359630584717,-0.0204959996044635,-33.1974983215332,-69.82499694824219,-26.565000534057617
5.525726089802512,-0.4250479936599731,-0.9135359525680542,-0.0158599987626075,-35.752498626708984,-70.82250213623047,-27.33500099182129
5.545892973341937,-0.3974759876728058,-0.9616039991378784,-0.0043919999152421,-33.880001068115234,-69.82499694824219,-25.462499618530277
5.566059856881362,-0.3796640038490295,-1.032364010810852,-0.0539239980280399,-32.70750045776367,-67.77750396728516,-21.80500030517578
5.586226740420788,-0.3691720068454742,-1.145823955535889,-0.0929640009999275,-30.11750030517578,-63.85750198364258,-15.890000343322754
5.606393623960213,-0.3328160047531128,-1.1636359691619873,-0.0680759996175766,-21.03499984741211,-58.76499938964844,-8.557499885559082
5.626560507499638,-0.1944679915904998,-1.1145919561386108,-0.0207399986684322,-11.34000015258789,-53.935001373291016,-3.0450000762939453
5.646727391039064,-0.1139479950070381,-1.0069879293441772,-0.0080519998446106,1.924999952316284,-51.25749969482422,-4.760000228881836
5.666894274578489,-0.1376159936189651,-0.8632720112800598,-0.0573399998247623,8.27750015258789,-50.68000030517578,-11.199999809265137
5.687061158117914,-0.148839995265007,-0.876691997051239,-0.0385520011186599,2.1524999141693115,-44.32749938964844,-14.542500495910645
5.7072280416573395,-0.1454239934682846,-0.9794159531593324,-0.0178119987249374,-4.392499923706055,-36.977500915527344,-11.88249969482422
5.727394925196765,-0.1695799976587295,-1.0277279615402222,0.0058559998869895,-4.585000038146973,-30.11750030517578,-5.827499866485596
5.74756180873619,-0.1598199903964996,-0.9874680042266846,0.0212280005216598,-1.277500033378601,-24.02750015258789,-1.715000033378601
5.7677286922756155,-0.1424959897994995,-0.9335439801216124,0.0351359993219375,0.5425000190734863,-18.934999465942383,-2.922499895095825
5.787895575815041,-0.1088239997625351,-0.9159759879112244,0.0246439985930919,-0.7699999809265137,-16.415000915527344,-5.477499961853027
5.808062459354466,-0.1107759997248649,-0.9357399940490724,-0.0041479999199509,-2.782500028610229,-13.369999885559082,-6.159999847412109
5.828229342893891,-0.1271239966154098,-0.9747799634933472,-0.0258639995008707,-4.164999961853027,-10.56999969482422,-5.057499885559082
5.848396226433317,-0.1266359984874725,-1.04066002368927,0.0036599999293684,-4.760000228881836,-8.382499694824219,-2.047499895095825
5.868563109972742,-0.0893040001392364,-1.0665240287780762,0.0405040010809898,0.262499988079071,-7.070000171661377,1.3650000095367432
5.888729993512167,-0.0185439996421337,-1.0784800052642822,0.0705159977078437,4.585000038146973,-4.900000095367432,2.5899999141693115
5.908896877051593,0.0090279998257756,-1.1114200353622437,0.0751519948244094,5.704999923706055,-1.715000033378601,1.190000057220459
5.929063760591018,-0.0058559998869895,-1.118008017539978,0.0636840015649795,6.650000095367432,2.012500047683716,-4.392499923706055
5.949230644130443,-0.0370879992842674,-1.0970239639282229,0.0536799989640712,8.855000495910645,7.349999904632568,-10.762499809265137
5.9693975276698685,-0.1015039980411529,-1.0814080238342283,0.0602679997682571,10.56999969482422,11.987500190734863,-16.22249984741211
5.989564411209294,-0.1105320006608963,-0.9972279667854308,0.0605119988322258,16.327499389648438,8.557499885559082,-18.30500030517578
6.009731294748719,-0.0895479992032051,-0.9491599798202516,0.0729559957981109,17.622499465942383,7.559999942779541,-15.207500457763672
6.0298981782881445,-0.0734440013766288,-0.9364719986915588,0.0719799995422363,14.734999656677246,5.880000114440918,-12.932499885559082
6.05006506182757,-0.0788119956851005,-0.9557479619979858,0.042943999171257,11.164999961853027,6.019999980926514,-12.109999656677246
6.070231945366995,-0.1261480003595352,-0.9716079831123352,0.0197639986872673,10.342499732971191,9.15250015258789,-11.9350004196167
6.09039882890642,-0.1910519897937774,-0.9850279688835144,0.0400159992277622,11.672499656677246,10.9375,-12.022500038146973
6.110565712445846,-0.2308239936828613,-0.9642879962921144,0.0392839983105659,16.1875,10.237500190734863,-11.987500190734863
6.130732595985271,-0.2335079908370971,-0.9259799718856812,0.0463600009679794,19.8799991607666,8.295000076293945,-9.59000015258789
6.150899479524696,-0.2237479984760284,-0.9298839569091796,0.0185439996421337,19.18000030517578,8.085000038146973,-5.127500057220459
6.171066363064122,-0.2066679894924163,-0.9311040043830872,0.0060999998822808,17.517499923706055,9.082500457763672,-0.962499976158142
6.191233246603547,-0.2108159959316253,-0.945743978023529,0.0087839998304843,13.212499618530272,10.86750030517578,1.0674999952316284
6.211400130142972,-0.2144759893417358,-0.97599995136261,0.0100039998069405,8.4350004196167,11.760000228881836,0.3149999976158142
6.2315670136823975,-0.2139879912137985,-0.977463960647583,0.0204959996044635,6.335000038146973,10.640000343322754,-1.4700000286102295
6.251733897221823,-0.2105719894170761,-0.9703879952430724,0.0392839983105659,5.670000076293945,8.925000190734863,-2.555000066757202
6.271900780761248,-0.2054480016231537,-0.9877119660377502,0.0531919971108436,5.09250020980835,6.772500038146973,-2.817500114440918
6.292067664300673,-0.1942239999771118,-0.9767319560050964,0.0668559968471527,7.454999923706055,3.587500095367432,-2.3975000381469727
6.312234547840099,-0.1776320040225982,-0.9862479567527772,0.0780799984931945,6.492499828338623,1.924999952316284,-1.9600000381469729
6.332401431379524,-0.1761679947376251,-0.9972279667854308,0.0919879972934722,4.112500190734863,0.8224999904632568,-2.782500028610229
6.352568314918949,-0.1656759977340698,-1.0052800178527832,0.0963799953460693,2.747499942779541,0.4025000035762787,-3.815000057220459
6.372735198458375,-0.1461559981107711,-1.0050359964370728,0.0875959992408752,2.7300000190734863,0.8400000333786011,-4.357500076293945
6.3929020819978,-0.1371279954910278,-0.9813680052757264,0.0732000023126602,4.130000114440918,2.817500114440918,-3.902499914169312
6.413068965537225,-0.1276119947433471,-0.9657520055770874,0.0641719996929168,5.057499885559082,6.84250020980835,-1.9600000381469729
6.433235849076651,-0.1161440014839172,-0.9508680105209352,0.0600240007042884,5.267499923706055,11.952500343322754,0.9275000095367432
6.453402732616076,-0.1041879951953888,-0.9440360069274902,0.0356239974498748,3.289999961853028,18.042499542236328,3.132499933242798
6.473569616155501,-0.0988200008869171,-0.936959981918335,0.0346480011940002,1.6449999809265137,24.71000099182129,5.179999828338623
6.4937364996949265,-0.0954039990901947,-0.975268006324768,0.0712479948997497,0.2275000065565109,28.857500076293945,7.699999809265137
6.513903383234352,-0.1083360016345977,-1.0504199266433716,0.1061399951577186,-1.0850000381469729,30.520000457763672,8.067500114440918
6.534070266773777,-0.1317600011825561,-1.0628639459609983,0.1232199966907501,2.5899999141693115,31.149999618530277,4.427500247955322
6.554237150313202,-0.1698240041732788,-1.029191970825195,0.1276119947433471,5.582499980926514,30.082500457763672,-0.9100000262260436
6.574404033852628,-0.2144759893417358,-1.0867760181427002,0.1178519949316978,5.582499980926514,26.670000076293945,-5.039999961853027
6.594570917392053,-0.2666919827461242,-1.0523719787597656,0.185928001999855,20.71999931335449,11.74250030517578,-10.8149995803833
6.614737800931478,-0.2483920007944107,-0.9862479567527772,0.1986159980297088,24.01000022888184,1.75,-13.265000343322754
6.634904684470904,-0.2327760010957718,-0.9425719976425172,0.2005679905414581,21.979999542236328,-3.849999904632568,-14.36750030517578
6.655071568010329,-0.1995919942855835,-0.8852319717407227,0.2025199979543686,18.497499465942383,-7.997499942779541,-13.020000457763672
6.675238451549754,-0.1766559928655624,-0.8896239995956421,0.1893439888954162,9.765000343322754,-9.082500457763672,-10.09749984741211
6.69540533508918,-0.1485960036516189,-0.8940159678459167,0.1617719978094101,3.202500104904175,-9.449999809265137,-7.595000267028809
6.715572218628605,-0.1332239955663681,-0.8727880120277405,0.1427399963140487,-0.3675000071525574,-7.945000171661377,-5.179999828338623
6.73573910216803,-0.1254159957170486,-0.9079239964485168,0.130295991897583,-4.514999866485596,-3.640000104904175,-3.8324999809265137
6.7559059857074555,-0.1576239913702011,-0.9040200114250184,0.1698240041732788,-3.587500095367432,-0.6650000214576721,-1.6449999809265137
6.776072869246881,-0.1834879964590072,-0.9342759847640992,0.1942239999771118,-4.65500020980835,-0.1574999988079071,1.8899999856948853
6.796239752786306,-0.1788519918918609,-0.952575981616974,0.1834879964590072,-6.440000057220459,-1.5225000381469729,2.1524999141693115
6.816406636325731,-0.1822679936885833,-0.9315919876098632,0.2064239978790283,-8.592499732971191,-2.5899999141693115,0.3675000071525574
6.836573519865157,-0.1932480037212371,-0.9842959642410278,0.1944679915904998,-16.22249984741211,-3.3424999713897705,-2.922499895095825
6.856740403404582,-0.1739719957113266,-0.9796599745750428,0.1693359911441803,-14.03499984741211,-5.302500247955322,-4.777500152587891
6.876907286944007,-0.1678719967603683,-0.9703879952430724,0.1622599959373474,-9.730000495910645,-6.317500114440918,-3.884999990463257
6.897074170483433,-0.1295640021562576,-0.932811975479126,0.1607960015535354,-6.142499923706055,-7.385000228881836,-2.9749999046325684
6.917241054022858,-0.118827998638153,-0.9315919876098632,0.1607960015535354,-8.067500114440918,-4.952499866485596,-2.887500047683716
6.937407937562283,-0.1373720020055771,-0.9723399877548218,0.1625040024518966,-12.31999969482422,-3.954999923706055,-2.7300000190734863
6.9575748211017086,-0.1764120012521743,-0.993079960346222,0.1495719999074936,-13.475000381469728,-5.302500247955322,-2.1524999141693115
6.977741704641134,-0.171775996685028,-0.9945439696311952,0.1490840017795562,-13.404999732971191,-10.640000343322754,-2.677500009536743
6.997908588180559,-0.13298000395298,-0.9889319539070128,0.1449359953403473,-10.90250015258789,-14.980000495910645,-2.922499895095825
7.0180754717199845,-0.0907679945230484,-0.9567239880561828,0.1395680010318756,-9.5024995803833,-14.052499771118164,-3.5174999237060547
7.03824235525941,-0.0590479969978332,-0.9511119723320008,0.1395680010318756,-12.18000030517578,-10.43000030517578,-5.162499904632568
7.058409238798835,-0.076615996658802,-0.9850279688835144,0.1285879909992218,-17.622499465942383,-6.737500190734863,-7.034999847412109
7.07857612233826,-0.1107759997248649,-1.0133320093154907,0.1259039938449859,-19.70499992370605,-6.84250020980835,-7.699999809265137
7.098743005877686,-0.1295640021562576,-1.0040600299835205,0.1400559991598129,-17.045000076293945,-10.3774995803833,-7.28000020980835
7.118909889417111,-0.1085800006985664,-0.9762439727783204,0.1517679989337921,-13.667500495910645,-14.227499961853027,-6.072500228881836
7.139076772956536,-0.0741759985685348,-0.9637999534606934,0.1566479951143264,-13.352499961853027,-14.734999656677246,-5.284999847412109
7.159243656495962,-0.0592919997870922,-0.9821000099182128,0.1800719946622848,-13.352499961853027,-13.807499885559082,-5.337500095367432
7.179410540035387,-0.0453839972615242,-0.9957639575004578,0.1942239999771118,-12.845000267028809,-14.157500267028809,-6.457499980926514
7.199577423574812,-0.0546559989452362,-0.93232399225235,0.1964199990034103,-9.572500228881836,-15.977499961853027,-9.345000267028809
7.2197443071142375,-0.0546559989452362,-0.8874279856681824,0.1783639937639236,-8.71500015258789,-17.517499923706055,-7.857500076293945
7.239911190653663,-0.0380639992654323,-0.843019962310791,0.1568920016288757,-10.5,-19.774999618530277,-3.745000123977661
7.260078074193088,-0.0168359987437725,-0.8561959862709045,0.1373720020055771,-17.045000076293945,-17.237499237060547,1.1024999618530271
7.2802449577325135,0.0060999998822808,-0.96697199344635,0.1498159915208816,-24.86750030517578,-14.315000534057615,5.652500152587891
7.300411841271939,-0.0019519999623298,-1.1004400253295898,0.1564040035009384,-28.332500457763672,-14.175000190734863,11.095000267028809
7.320578724811364,-0.0273279994726181,-1.1963319778442385,0.1520119905471801,-26.4424991607666,-15.487500190734863,14.857500076293944
7.340745608350789,-0.0407480001449584,-1.2148759365081787,0.1969079971313476,-18.217500686645508,-15.399999618530272,14.577500343322754
7.360912491890215,-0.0114679997786879,-1.1324039697647097,0.2357039898633957,-5.40749979019165,-14.9975004196167,12.61750030517578
7.38107937542964,-0.0036599999293684,-1.1231319904327393,0.3181760013103485,-1.995000004768372,-9.712499618530272,9.922499656677246
7.401246258969065,0.0219599995762109,-1.235859990119934,0.3742959797382355,-2.8350000381469727,-9.397500038146973,6.597499847412109
7.421413142508491,-0.0097599998116493,-1.313696026802063,0.3594119846820831,6.720000267028809,-8.172499656677246,2.0824999809265137
7.441580026047916,-0.0161039996892213,-1.2626999616622925,0.3825919926166534,27.020000457763672,-4.409999847412109,-0.9975000023841858
7.461746909587341,0.0290360003709793,-1.119715929031372,0.0710039958357811,32.23500061035156,-4.637499809265137,5.617499828338623
7.4819137931267665,-0.1132159978151321,-1.3461480140686035,-0.1439599990844726,17.674999237060547,16.572500228881836,5.914999961853027
7.502080676666192,0.0656360015273094,-1.2004799842834473,-0.2652280032634735,27.457500457763672,8.71500015258789,-3.5174999237060547
7.522247560205617,-0.147376000881195,-0.9835639595985411,-0.257420003414154,26.11000061035156,12.932499885559082,-7.857500076293945
7.542414443745042,-0.4396879971027374,-0.6768559813499451,-0.171775996685028,28.57749938964844,5.110000133514404,-7.559999942779541
7.562581327284468,-0.5877959728240967,-0.7605479955673218,-0.1712879985570907,17.97249984741211,-6.107500076293945,4.007500171661377
7.582748210823893,-0.5885279774665833,-0.7188239693641663,-0.0971119999885559,18.864999771118164,-6.090000152587891,16.537500381469727
7.602915094363318,-0.5475360155105591,-0.952575981616974,-0.0004879999905824,-0.2100000083446502,-13.2475004196167,23.852500915527344
7.623081977902744,-0.2788919806480407,-1.0836039781570437,0.020983999595046,12.039999961853027,-29.1200008392334,28.174999237060547
7.643248861442169,-0.0483120009303092,-0.987223982810974,0.0204959996044635,29.90749931335449,-29.3125,32.74250030517578
7.663415744981594,-0.0353799983859062,-0.9508680105209352,0.028303999453783,24.13249969482422,-14.47249984741211,35.595001220703125
7.68358262852102,-0.0873520001769065,-1.0062559843063354,0.0497759990394115,13.282500267028809,-8.34749984741211,36.45249938964844
7.703749512060445,-0.1512800008058548,-1.0269960165023804,0.0912560001015663,13.614999771118164,-2.940000057220459,35.57749938964844
7.72391639559987,-0.2405840009450912,-0.9174399971961976,0.0997959971427917,23.57250022888184,8.78499984741211,40.12749862670898
7.7440832791392955,-0.2466839998960495,-0.8566839694976807,0.0983319953083992,24.51749992370605,14.227499961853027,42.27999877929688
7.764250162678721,-0.2330199927091598,-0.8027600049972534,0.1185839995741844,22.34749984741211,17.815000534057617,38.622501373291016
7.784417046218146,-0.253028005361557,-0.814471960067749,0.1298079937696457,22.61000061035156,23.030000686645508,34.439998626708984
7.804583929757571,-0.2945079803466797,-0.7134559750556946,0.1049199998378753,24.832500457763672,30.11750030517578,25.725000381469727
7.824750813296997,-0.27742800116539,-0.6968640089035034,0.143227994441986,17.9375,30.975000381469727,20.77250099182129
7.844917696836422,-0.2669360041618347,-0.6795399785041809,0.2071560025215149,8.6274995803833,32.23500061035156,14.350000381469728
7.865084580375847,-0.2810879945755005,-0.729315996170044,0.2947520017623901,-2.065000057220459,34.772499084472656,7.244999885559082
7.885251463915273,-0.2681559920310974,-0.8454599976539612,0.3484320044517517,-5.337500095367432,33.845001220703125,0.8050000071525574
7.905418347454698,-0.240339994430542,-0.946720004081726,0.2801119983196258,1.995000004768372,35.122501373291016,-5.704999923706055
7.925585230994123,-0.2222839891910553,-0.929639995098114,0.1534759998321533,13.125,39.65499877929688,-13.212499618530272
7.945752114533549,-0.3916199803352356,-0.9677039980888368,-0.0065879998728632,14.875,41.63249969482422,-18.899999618530277
7.965918998072974,-0.5726680159568787,-0.9601399898529052,0.1263919919729232,13.387499809265137,27.70249938964844,-21.332500457763672
7.986085881612399,-0.7434679865837097,-1.2863680124282837,0.2820639908313751,-1.4350000619888306,25.58500099182129,-2.887500047683716
8.006252765151824,-0.7190679907798767,-1.3168679475784302,0.3020719885826111,25.795000076293945,23.15250015258789,19.8799991607666
8.026419648691249,-0.2435119897127151,-1.2585519552230835,0.1800719946622848,50.48749923706055,20.299999237060547,24.36000061035156
8.046586532230673,-0.4960519969463348,-1.419592022895813,-0.128831997513771,48.38750076293945,35.13999938964844,25.09499931335449
8.066753415770098,-0.3925960063934326,-1.331507921218872,-0.0939399972558021,59.20249938964844,25.795000076293945,17.5
8.086920299309522,-0.3113439977169037,-0.9689239859580994,-0.0131759997457265,56.682498931884766,16.309999465942383,20.28249931335449
8.107087182848947,-0.1927599906921386,-0.9828319549560548,-0.1080919951200485,39.375,25.112499237060547,20.86000061035156
8.127254066388371,-0.085887998342514,-0.7005239725112915,-0.1651879996061325,30.537500381469727,31.88500022888184,8.522500038146973
8.147420949927795,-0.0793000012636184,-0.7459079623222351,-0.1376159936189651,-2.309999942779541,46.04249954223633,-3.255000114440918
8.16758783346722,-0.2940199971199035,-0.95306396484375,-0.0824719965457916,-20.177499771118164,54.95000076293945,-15.574999809265137
8.187754717006644,-0.4199239909648895,-1.048956036567688,0.0078079998493194,-23.712499618530277,43.20750045776367,-26.670000076293945
8.207921600546069,-0.4828760027885437,-1.0604239702224731,0.0348920002579689,-15.697500228881836,28.052499771118164,-29.207500457763672
8.228088484085493,-0.4174839854240417,-0.8803519606590271,-0.0056119998916983,-6.002500057220459,12.827500343322754,-30.799999237060547
8.248255367624918,-0.3401359915733337,-0.871567964553833,-0.020983999595046,-15.767499923706056,4.199999809265137,-31.20249938964844
8.268422251164342,-0.3540439903736114,-0.8503400087356567,0.0441639982163906,-17.90250015258789,0.0350000001490116,-28.80500030517578
8.288589134703766,-0.3030479848384857,-0.8232559561729431,0.0485559999942779,-8.78499984741211,-7.804999828338623,-24.395000457763672
8.30875601824319,-0.2252119928598404,-0.6993039846420288,0.0363559983670711,-0.699999988079071,-11.760000228881836,-19.54750061035156
8.328922901782615,-0.1356640011072158,-0.7844600081443787,0.0351359993219375,-15.767499923706056,-11.899999618530272,-15.609999656677246
8.34908978532204,-0.1293199956417083,-0.8913319706916809,0.0675880014896392,-24.88500022888184,-7.682499885559082,-12.704999923706056
8.369256668861464,-0.1627479940652847,-0.9616039991378784,0.1549399942159652,-24.237499237060547,-7.402500152587891,-10.220000267028809
8.389423552400888,-0.2132560014724731,-0.9757559895515442,0.2142319977283477,-23.78249931335449,-17.045000076293945,-8.102499961853027
8.409590435940313,-0.2984119951725006,-0.9821000099182128,0.1593319922685623,-9.327500343322754,-30.362499237060547,-7.0
8.429757319479737,-0.3108559846878052,-0.9235399961471558,0.2083759903907776,-1.6100000143051147,-37.36249923706055,-6.772500038146973
8.449924203019162,-0.2942639887332916,-0.9135359525680542,0.1881240010261535,-0.5600000023841858,-39.8125,-3.009999990463257
8.470091086558586,-0.2164279967546463,-0.9454999566078186,0.1405439972877502,-0.4550000131130218,-42.01750183105469,1.4874999523162842
8.49025797009801,-0.1239520013332367,-0.8769359588623047,0.1032119989395141,0.6299999952316284,-37.48500061035156,5.565000057220459
8.510424853637435,-0.0361119993031024,-0.843995988368988,0.0690519958734512,-9.800000190734863,-29.645000457763672,8.609999656677246
8.53059173717686,0.0012199999764561,-0.915731966495514,0.0434319972991943,-20.71999931335449,-18.987499237060547,8.207500457763672
8.550758620716284,0.0034159999340772,-0.9991799592971802,-0.0407480001449584,-18.88249969482422,-7.454999923706055,7.105000019073486
8.570925504255708,-0.0026839999482035,-1.1650999784469604,-0.2759639918804168,-15.942500114440918,3.0975000858306885,4.829999923706055
8.591092387795133,-0.3667320013046264,-1.3400479555130005,-0.2669360041618347,-10.307499885559082,23.309999465942383,-5.110000133514404
8.611259271334557,-0.4714079797267914,-1.3107680082321167,-0.0756400004029274,4.375,12.512499809265137,-22.364999771118164
8.631426154873981,-0.5355799794197083,-1.052616000175476,-0.1007720008492469,22.75,-2.0299999713897705,-25.252500534057617
8.651593038413406,-0.4811680018901825,-0.8876720070838928,-0.2130119949579239,33.26750183105469,-17.780000686645508,-16.344999313354492
8.67175992195283,-0.4440799951553345,-0.6212239861488342,-0.2152079939842224,37.15250015258789,-13.19499969482422,-0.1574999988079071
8.691926805492255,-0.3984519839286804,-0.6229320168495178,-0.0212280005216598,9.520000457763672,-6.789999961853027,9.9399995803833
8.71209368903168,-0.3108559846878052,-0.9174399971961976,0.0431879982352256,-24.5,-6.40500020980835,13.807499885559082
8.732260572571104,-0.2837719917297363,-1.022603988647461,0.0936959981918335,-31.36000061035156,1.680000066757202,16.642499923706055
8.752427456110528,-0.3084160089492798,-1.13264799118042,0.0807639956474304,-33.494998931884766,12.057499885559082,13.6850004196167
8.772594339649952,-0.3003639876842499,-1.1397240161895752,0.1439599990844726,-23.13500022888184,14.787500381469728,11.4975004196167
8.792761223189377,-0.3752720057964325,-1.0745760202407837,0.1546960026025772,-14.385000228881836,14.0,13.510000228881836
8.812928106728801,-0.4343200027942657,-1.040903925895691,0.1434720009565353,-7.28000020980835,9.15250015258789,14.50749969482422
8.833094990268226,-0.4255359768867492,-0.9059720039367676,0.1803160011768341,6.230000019073486,1.5049999952316284,9.835000038146973
8.85326187380765,-0.4157759845256805,-0.7258999943733215,0.1634799987077713,12.5649995803833,-7.525000095367432,1.190000057220459
8.873428757347074,-0.3611199855804443,-0.5887719988822937,0.1698240041732788,8.085000038146973,-11.619999885559082,-7.699999809265137
8.893595640886499,-0.4252919852733612,-0.6136599779129028,0.2171600013971328,-10.90250015258789,-10.605000495910645,-13.142499923706056
8.913762524425923,-0.3254959881305694,-0.9137799739837646,-0.0817399993538856,-35.97999954223633,-11.042500495910645,-8.015000343322754
8.933929407965348,-0.1317600011825561,-1.258795976638794,-0.1398119926452636,-28.06999969482422,-2.2925000190734863,-3.815000057220459
8.954096291504772,-0.0834480002522468,-1.0318759679794312,0.3196399807929992,-1.5049999952316284,-0.4724999964237213,0.9800000190734864
8.974263175044197,-0.0988200008869171,-1.099463939666748,-0.0241560004651546,-11.077500343322754,4.690000057220459,10.342499732971191
8.994430058583621,-0.10589599609375,-1.2234159708023071,-0.3513599932193756,2.5899999141693115,17.360000610351562,8.329999923706055
9.014596942123045,-0.248879998922348,-0.94159597158432,0.1698240041732788,-5.722499847412109,28.29750061035156,-4.514999866485596
9.03476382566247,-0.4211439788341522,-0.8469240069389343,0.1158999949693679,0.962499976158142,11.199999809265137,-9.082500457763672
9.054930709201894,-0.4748239815235138,-0.5441200137138367,0.0380639992654323,13.510000228881836,-7.647500038146973,-21.01749992370605
9.075097592741319,-0.5560759902000427,-0.6053639650344849,-0.0710039958357811,-12.28499984741211,-11.77750015258789,-22.34749984741211
9.095264476280743,-0.5775479674339294,-0.8408240079879761,-0.2159399986267089,-35.157501220703125,-19.950000762939453,-14.84000015258789
9.115431359820168,-0.5287479758262634,-1.039440035820007,-0.264983981847763,-38.56999969482422,-24.395000457763672,-2.555000066757202
9.135598243359592,-0.4411519765853882,-1.2200000286102295,-0.1012599989771843,-35.525001525878906,-28.47249984741211,9.59000015258789
9.155765126899016,-0.3084160089492798,-1.30295991897583,-0.0146399997174739,-22.68000030517578,-35.630001068115234,16.940000534057617
9.17593201043844,-0.1237079948186874,-1.236591935157776,0.0165919996798038,0.0175000000745058,-36.15499877929688,20.15999984741211
9.196098893977865,-0.0009759999811649,-1.0145519971847534,0.0646599978208541,16.327499389648438,-27.15999984741211,15.067500114440918
9.21626577751729,0.0090279998257756,-0.8547319769859314,0.0927200019359588,11.199999809265137,-14.279999732971191,3.884999990463257
9.236432661056714,-0.0880839973688125,-0.8420439958572388,0.0819839984178543,1.9424999952316284,0.1749999970197677,-4.340000152587891
9.256599544596138,-0.1668960005044937,-0.8613199591636658,0.0436760000884532,1.4524999856948853,10.149999618530272,-8.225000381469727
9.276766428135563,-0.2010560035705566,-0.895967960357666,0.0251320004463195,3.255000114440918,13.877500534057615,-8.925000190734863
9.296933311674987,-0.2332639992237091,-0.7532280087471008,0.0153719997033476,12.984999656677246,14.542500495910645,0.9100000262260436
9.317100195214412,-0.4084559977054596,-1.0801880359649658,0.0478239990770816,-14.630000114440918,17.377500534057617,1.8550000190734863
9.337267078753836,-0.3828359842300415,-1.0606679916381836,0.0446520000696182,-16.012500762939453,6.317500114440918,-4.514999866485596
9.35743396229326,-0.313539981842041,-1.0228480100631714,-0.0366000011563301,-11.357500076293944,-1.2074999809265137,-3.972500085830689
9.377600845832685,-0.2696200013160705,-1.0155279636383057,-0.0414799973368644,-6.352499961853027,-0.612500011920929,-0.875
9.39776772937211,-0.2769399881362915,-1.039440035820007,0.0102479998022317,-2.712500095367432,3.622499942779541,-0.5425000190734863
9.417934612911534,-0.2640079855918884,-0.9835639595985411,0.0168359987437725,4.602499961853027,4.987500190734863,-1.8025000095367432
9.438101496450958,-0.23887600004673,-0.935252010822296,0.0024399999529123,7.122499942779541,6.457499980926514,-3.447499990463257
9.458268379990383,-0.2254559993743896,-0.92085599899292,-0.009515999816358,7.087500095367432,8.015000343322754,-4.357500076293945
9.478435263529807,-0.2078879922628402,-0.9276880025863647,-0.0151279997080564,6.019999980926514,9.1875,-4.392499923706055
9.498602147069231,-0.1856839954853058,-0.9515999555587769,-0.018300000578165,3.377500057220459,10.237500190734863,-4.304999828338623
9.518769030608656,-0.1888559907674789,-0.9740479588508606,-0.0139079997316002,1.0499999523162842,12.739999771118164,-3.4124999046325684
9.53893591414808,-0.2296039909124374,-1.002351999282837,-0.0178119987249374,-0.2100000083446502,15.592499732971191,-2.3975000381469727
9.559102797687505,-0.2740119993686676,-1.0084519386291504,-0.0092719998210668,1.5750000476837158,16.3799991607666,-1.9774999618530276
9.57926968122693,-0.3025600016117096,-1.0003999471664429,-0.0190319996327161,4.550000190734863,15.907500267028809,-1.8899999856948853
9.599436564766354,-0.3196399807929992,-0.9818559885025024,-0.0073199998587369,7.664999961853027,14.875,-1.6100000143051147
9.619603448305778,-0.3098799884319305,-0.9496479630470276,0.0200079996138811,10.0625,11.74250030517578,0.5774999856948853
9.639770331845202,-0.2744999825954437,-0.9459879994392396,0.0319640003144741,8.172499656677246,10.710000038146973,1.6100000143051147
9.659937215384627,-0.2476599961519241,-0.9364719986915588,0.0358680002391338,6.037499904632568,10.482500076293944,1.8725000619888303
9.680104098924051,-0.2415599972009658,-0.9393999576568604,0.0407480001449584,3.867500066757202,10.850000381469728,1.2949999570846558
9.700270982463476,-0.2496119886636734,-0.9462319612503052,0.0446520000696182,2.625,10.46500015258789,0.1400000005960464
9.7204378660029,-0.2498559951782226,-0.9552599787712096,0.0485559999942779,1.715000033378601,9.1875,-1.2424999475479126
9.740604749542324,-0.2496119886636734,-0.9681919813156128,0.0524599999189376,1.2074999809265137,7.927500247955322,-2.275000095367432
9.760771633081749,-0.2581520080566406,-0.9659959673881532,0.0541680008172988,1.6100000143051147,6.264999866485596,-2.694999933242798
9.780938516621173,-0.273279994726181,-0.9520879983901978,0.0527039989829063,2.047499895095825,4.585000038146973,-2.572499990463257
9.801105400160598,-0.2893840074539184,-0.9513559937477112,0.0461159981787204,1.5049999952316284,2.9749999046325684,-1.662500023841858
9.821272283700022,-0.3023159801959991,-0.9515999555587769,0.0368440002202987,0.7350000143051147,1.1549999713897705,-0.5774999856948853
9.841439167239447,-0.3052439987659454,-0.9486719965934752,0.0297679994255304,-0.1050000041723251,-0.612500011920929,0.2975000143051147
9.861606050778871,-0.2962159812450409,-0.9420839548110962,0.0302559994161129,-1.0325000286102295,-2.117500066757202,0.9449999928474426
9.881772934318295,-0.2793799936771393,-0.9445239901542664,0.0234239995479583,-2.555000066757202,-2.870000123977661,1.5575000047683716
9.90193981785772,-0.2627879977226257,-0.9518439769744872,0.0158599987626075,-3.920000076293945,-2.765000104904175,1.995000004768372
9.922106701397144,-0.2552239894866943,-0.965507984161377,0.0178119987249374,-5.127500057220459,-1.9424999952316284,1.9075000286102293
9.942273584936569,-0.2608360052108764,-0.9794159531593324,0.0156159996986389,-5.372499942779541,-1.1024999618530271,1.1549999713897705
9.962440468475993,-0.264739990234375,-0.9869799613952636,0.0192760005593299,-4.059999942779541,-0.5600000023841858,0.3499999940395355
9.982607352015417,-0.2622999846935272,-0.9847840070724488,0.0278159994632005,-1.5750000476837158,-0.3149999976158142,-0.0525000020861625
10.002774235554842,-0.261568009853363,-0.9694119691848756,0.0339160002768039,0.6825000047683716,-0.0525000020861625,0.1574999988079071
10.022941119094266,-0.2620559930801391,-0.9450119733810424,0.0295239984989166,2.362499952316284,0.0874999985098838,0.7699999809265137
10.04310800263369,-0.2744999825954437,-0.9496479630470276,0.0304999984800815,1.4700000286102295,0.962499976158142,1.5399999618530271
10.063274886173115,-0.2788919806480407,-0.9640439748764038,0.0334279984235763,-0.875,0.7699999809265137,0.7175000309944153
10.08344176971254,-0.2798680067062378,-0.9523319602012634,0.0261080004274845,-1.8200000524520876,0.0874999985098838,-0.332500010728836
10.103608653251964,-0.2674239873886108,-0.9557479619979858,0.0292799994349479,-2.747499942779541,-0.0350000001490116,-0.5600000023841858
10.123775536791388,-0.2749879956245422,-0.9584319591522216,0.0258639995008707,-2.870000123977661,0.1225000023841857,-0.1749999970197677
10.143942420330813,-0.2674239873886108,-0.9608719944953918,0.0158599987626075,-2.2049999237060547,-0.1050000041723251,0.0700000002980232
10.164109303870237,-0.2642520070075989,-0.9684360027313232,0.0173240005970001,-1.4175000190734863,0.4375,0.0700000002980232
10.184276187409662,-0.2659600079059601,-0.97599995136261,0.0180559996515512,-0.8224999904632568,0.8924999833106995,-0.0525000020861625
10.204443070949086,-0.2625440061092376,-0.9738039970397948,0.0204959996044635,0.0525000020861625,0.875,-0.2450000047683715
10.22460995448851,-0.2579079866409302,-0.9606279730796814,0.0295239984989166,0.5600000023841858,1.9600000381469729,-0.4375
10.244776838027935,-0.2622999846935272,-0.9557479619979858,0.0307439994066953,0.4900000095367431,2.345000028610229,-0.5074999928474426
10.26494372156736,-0.2740119993686676,-0.9535520076751708,0.0295239984989166,0.2800000011920929,2.677500009536743,-0.612500011920929
10.285110605106784,-0.2725479900836944,-0.9520879983901978,0.033671997487545,0.1574999988079071,2.484999895095825,-0.7524999976158142
10.305277488646208,-0.285968005657196,-0.9567239880561828,0.0297679994255304,-0.2975000143051147,1.8725000619888303,-0.9975000023841858
10.325444372185633,-0.2771840095520019,-0.9635559916496276,0.0251320004463195,-0.2100000083446502,1.0850000381469729,-1.0499999523162842
10.345611255725057,-0.2547360062599182,-0.9603840112686156,0.0287919994443655,0.2275000065565109,0.6825000047683716,-1.1024999618530271
10.365778139264481,-0.2642520070075989,-0.9633119702339172,0.0212280005216598,-0.5074999928474426,0.3499999940395355,-0.9100000262260436
10.385945022803906,-0.2642520070075989,-0.9642879962921144,0.0217159986495971,-0.5425000190734863,-0.332500010728836,-0.4900000095367431
10.40611190634333,-0.2630319893360138,-0.9640439748764038,0.020983999595046,-0.6299999952316284,-0.6650000214576721,-0.0350000001490116
10.426278789882755,-0.2652280032634735,-0.9628239870071412,0.0197639986872673,-0.6474999785423279,-0.962499976158142,0.2800000011920929
10.44644567342218,-0.2613239884376526,-0.9606279730796814,0.0195199996232986,-0.4724999964237213,-1.1024999618530271,0.262499988079071
10.466612556961604,-0.2610799968242645,-0.9635559916496276,0.0214719995856285,-0.5074999928474426,-1.0149999856948853,0.1400000005960464
10.486779440501028,-0.2603479921817779,-0.9679479598999025,0.0204959996044635,-0.612500011920929,-1.2074999809265137,0.1924999952316284
10.506946324040452,-0.257420003414154,-0.9637999534606934,0.0212280005216598,-0.1924999952316284,-0.9275000095367432,0.1749999970197677
10.527113207579877,-0.257420003414154,-0.958675980567932,0.018300000578165,-0.0350000001490116,-0.9975000023841858,-0.0700000002980232
10.547280091119301,-0.2622999846935272,-0.9606279730796814,0.0195199996232986,-0.4025000035762787,-0.9100000262260436,-0.2450000047683715
10.567446974658726,-0.2662039995193481,-0.9635559916496276,0.0226919986307621,-0.4900000095367431,-1.277500033378601,-0.2275000065565109
10.58761385819815,-0.264739990234375,-0.9674599766731262,0.0222040005028247,-0.1749999970197677,-1.5049999952316284,0.0525000020861625
10.607780741737574,-0.2642520070075989,-0.9677039980888368,0.0243999995291233,-0.1050000041723251,-1.662500023841858,0.262499988079071
10.627947625276999,-0.260591983795166,-0.9635559916496276,0.0207399986684322,-0.1574999988079071,-1.8899999856948853,0.1400000005960464
10.648114508816423,-0.2561999857425689,-0.9620919823646544,0.0234239995479583,0.0700000002980232,-1.4874999523162842,0.0525000020861625
10.668281392355848,-0.248879998922348,-0.9584319591522216,0.0273279994726181,0.5600000023841858,-1.0499999523162842,0.1400000005960464
10.688448275895272,-0.2508319914340973,-0.9545279741287231,0.0317199975252151,0.8924999833106995,0.1225000023841857,0.5074999928474426
10.708615159434697,-0.2625440061092376,-0.9713639616966248,0.0302559994161129,-0.1749999970197677,0.6474999785423279,0.1225000023841857
10.728782042974121,-0.2579079866409302,-0.9625799655914308,0.0261080004274845,0.1574999988079071,0.6650000214576721,-0.5774999856948853
10.748948926513545,-0.2603479921817779,-0.9603840112686156,0.0258639995008707,-0.1400000005960464,1.225000023841858,-0.9975000023841858
10.76911581005297,-0.2608360052108764,-0.9574559926986694,0.0265959985554218,-0.1749999970197677,1.190000057220459,-0.9449999928474426
10.789282693592394,-0.2642520070075989,-0.9650200009346008,0.0212280005216598,-0.6474999785423279,1.0325000286102295,-0.4025000035762787
10.809449577131819,-0.2657159864902496,-0.962336003780365,0.0214719995856285,-0.4025000035762787,0.5950000286102295,-0.1749999970197677
10.829616460671243,-0.2671799957752228,-0.9598959684371948,0.0219599995762109,-0.5074999928474426,0.2975000143051147,-0.0350000001490116
10.849783344210667,-0.2686440050601959,-0.9598959684371948,0.0204959996044635,-0.8575000166893005,0.0175000000745058,0.1749999970197677
10.869950227750092,-0.268887996673584,-0.9596520066261292,0.0217159986495971,-1.1375000476837158,-0.2800000011920929,0.4200000166893005
10.890117111289516,-0.2657159864902496,-0.9594079852104188,0.0239119995385408,-1.4874999523162842,-0.4200000166893005,0.5249999761581421
10.91028399482894,-0.2662039995193481,-0.9596520066261292,0.0212280005216598,-1.7324999570846558,-0.4200000166893005,0.5425000190734863
10.930450878368365,-0.261568009853363,-0.9620919823646544,0.0246439985930919,-1.662500023841858,-0.332500010728836,0.4550000131130218
10.95061776190779,-0.2622999846935272,-0.9591639637947084,0.0273279994726181,-1.627500057220459,-0.4025000035762787,0.3499999940395355
10.970784645447214,-0.2596159875392914,-0.9591639637947084,0.0234239995479583,-1.7324999570846558,-0.4900000095367431,0.3675000071525574
10.990951528986638,-0.2618120014667511,-0.9594079852104188,0.023667998611927,-1.7675000429153442,-0.3499999940395355,0.3849999904632568
11.011118412526063,-0.2620559930801391,-0.9628239870071412,0.0229359995573759,-1.9774999618530276,-0.2800000011920929,0.4550000131130218
11.031285296065487,-0.2620559930801391,-0.9640439748764038,0.0224479995667934,-2.2049999237060547,-0.1050000041723251,0.5425000190734863
11.051452179604912,-0.2581520080566406,-0.9662399888038636,0.028303999453783,-2.2049999237060547,-0.0350000001490116,0.5249999761581421
11.071619063144336,-0.2561999857425689,-0.9659959673881532,0.0270840004086494,-2.1700000762939453,-0.1924999952316284,0.5950000286102295
11.09178594668376,-0.2518079876899719,-0.9684360027313232,0.0265959985554218,-1.9774999618530276,-0.4025000035762787,0.5950000286102295
11.111952830223185,-0.2452199906110763,-0.9674599766731262,0.0265959985554218,-1.8200000524520876,-0.4200000166893005,0.4375
11.13211971376261,-0.2547360062599182,-0.9684360027313232,0.0402599982917308,-2.240000009536743,-0.1749999970197677,0.0874999985098838
11.152286597302034,-0.2540040016174316,-0.9606279730796814,0.0548999980092048,-2.5899999141693115,-0.7699999809265137,-0.1400000005960464
11.172453480841458,-0.2505879998207092,-0.9591639637947084,0.0534359999001026,-3.3424999713897705,-1.4524999856948853,0.332500010728836
11.192620364380883,-0.2588839828968048,-0.9528200030326844,0.0487999990582466,-3.3949999809265137,-1.4700000286102295,0.875
11.212787247920307,-0.2591280043125152,-0.9547719955444336,0.0573399998247623,-3.377500057220459,-1.5924999713897705,1.0674999952316284
11.232954131459731,-0.2335079908370971,-0.9552599787712096,0.0417240001261234,-3.430000066757202,-1.5575000047683716,1.1375000476837158
11.253121014999156,-0.2315559983253479,-0.954039990901947,0.0436760000884532,-3.7274999618530273,-0.0175000000745058,1.1200000047683716
11.27328789853858,-0.2242359966039657,-0.9547719955444336,0.0378200002014637,-4.445000171661377,0.7350000143051147,1.4700000286102295
11.293454782078005,-0.2354599982500076,-0.961847960948944,0.0334279984235763,-5.197500228881836,2.0999999046325684,1.715000033378601
11.313621665617429,-0.2342399954795837,-0.9603840112686156,0.0339160002768039,-5.179999828338623,2.940000057220459,1.8200000524520876
11.333788549156854,-0.2400960028171539,-0.9533079862594604,0.0324519984424114,-5.617499828338623,5.40749979019165,2.1875
11.353955432696278,-0.2398519963026046,-0.957211971282959,0.0273279994726181,-6.474999904632568,7.017499923706055,2.117500066757202
11.374122316235702,-0.2391199916601181,-0.9576999545097352,0.0207399986684322,-6.667500019073486,8.3125,1.5924999713897705
11.394289199775127,-0.2576639950275421,-0.9598959684371948,0.0178119987249374,-6.195000171661377,10.0625,1.0674999952316284
11.414456083314551,-0.264739990234375,-0.952575981616974,0.023667998611927,-6.054999828338623,10.53499984741211,1.3125
11.434622966853976,-0.2705959975719452,-0.9513559937477112,0.0290360003709793,-6.877500057220459,10.6225004196167,1.399999976158142
11.4547898503934,-0.2742559909820556,-0.9579439759254456,0.0297679994255304,-7.542500019073486,9.817500114440918,1.5924999713897705
11.474956733932824,-0.2876760065555572,-0.9711199998855592,0.0314759984612464,-7.367499828338623,8.6274995803833,2.414999961853028
11.495123617472249,-0.2710839807987213,-0.9716079831123352,0.0302559994161129,-6.125,6.982500076293945,3.0625
11.515290501011673,-0.2603479921817779,-0.981611967086792,0.0458719991147518,-2.9574999809265137,7.210000038146973,3.3600001335144043
11.535457384551098,-0.2496119886636734,-0.973315954208374,0.0487999990582466,0.5249999761581421,7.595000267028809,3.4825000762939453
11.555624268090522,-0.2459519952535629,-0.9689239859580994,0.0553879998624324,3.3949999809265137,8.539999961853027,3.4825000762939453
11.575791151629947,-0.2430239915847778,-0.9650200009346008,0.0602679997682571,5.53000020980835,8.767499923706055,2.992500066757202
11.595958035169371,-0.2500999867916107,-0.9584319591522216,0.0517279990017414,7.420000076293945,9.204999923706056,2.5199999809265137
11.616124918708795,-0.2640079855918884,-0.944279968738556,0.0500199981033802,9.170000076293944,9.712499618530272,2.8350000381469727
11.63629180224822,-0.2674239873886108,-0.9374479651451112,0.0409919992089271,10.079999923706056,8.4350004196167,3.184999942779541
11.656458685787644,-0.261568009853363,-0.912559986114502,0.0668559968471527,11.287500381469728,7.192500114440918,2.450000047683716
11.676625569327069,-0.2349720001220703,-0.901091992855072,0.0897919982671737,10.727499961853027,5.582499980926514,1.0149999856948853
11.696792452866493,-0.2171600013971328,-0.8737639784812927,0.1007720008492469,8.067500114440918,4.882500171661377,-1.8200000524520876
11.716959336405917,-0.2091079950332641,-0.8686400055885315,0.1010159999132156,3.5174999237060547,4.637499809265137,-5.547500133514404
11.737126219945342,-0.2159399986267089,-0.8901119828224182,0.0905239954590797,0.5600000023841858,6.195000171661377,-8.8725004196167
11.757293103484766,-0.2486359924077987,-0.928663969039917,0.110287994146347,-1.4175000190734863,9.607500076293944,-10.079999923706056
11.77745998702419,-0.2474159896373748,-0.9589200019836426,0.1117519959807396,-0.6650000214576721,11.182499885559082,-8.942500114440918
11.797626870563615,-0.2335079908370971,-0.9381799697875975,0.0929640009999275,1.6974999904632568,11.760000228881836,-6.982500076293945
11.81779375410304,-0.2308239936828613,-0.9215880036354064,0.0800319984555244,1.837499976158142,13.59749984741211,-5.074999809265137
11.837960637642464,-0.2500999867916107,-0.9006040096282959,0.0749079957604408,1.277500033378601,15.522500038146973,-4.059999942779541
11.858127521181888,-0.2730360031127929,-0.8874279856681824,0.0739319995045661,-0.5425000190734863,16.012500762939453,-2.2925000190734863
11.878294404721313,-0.2991439998149872,-0.8537560105323792,0.0797879993915557,-2.9749999046325684,14.94499969482422,-0.0350000001490116
11.898461288260737,-0.3111000061035156,-0.8408240079879761,0.0751519948244094,-7.997499942779541,13.212499618530272,2.362499952316284
11.918628171800162,-0.3118319809436798,-0.852292001247406,0.0600240007042884,-12.425000190734863,12.635000228881836,4.514999866485596
11.938795055339586,-0.2984119951725006,-0.8583920001983643,0.0397720001637935,-15.329999923706056,11.199999809265137,4.392499923706055
11.95896193887901,-0.2962159812450409,-0.8659560084342957,0.028303999453783,-16.415000915527344,10.46500015258789,3.377500057220459
11.979128822418435,-0.2769399881362915,-0.8586359620094299,0.0412359982728958,-16.292499542236328,9.029999732971191,2.7300000190734863
11.99929570595786,-0.2749879956245422,-0.8622959852218628,0.0680759996175766,-19.18000030517578,7.875,3.115000009536743
12.019462589497284,-0.2801119983196258,-0.9013359546661376,0.0551439970731735,-18.462499618530277,7.507500171661377,4.21750020980835
12.039629473036708,-0.2640079855918884,-0.9108519554138184,0.0539239980280399,-14.157500267028809,6.300000190734863,5.512499809265137
12.059796356576133,-0.2422920018434524,-0.8986519575119019,0.052947998046875,-10.920000076293944,5.022500038146973,5.337500095367432
12.079963240115557,-0.2242359966039657,-0.8710799813270569,0.0939399972558021,-10.202500343322754,3.132499933242798,2.450000047683716
12.100130123654981,-0.2127679884433746,-0.8256959915161133,0.1322479993104934,-12.390000343322754,-0.2975000143051147,-1.9075000286102293
12.120297007194406,-0.2276519984006881,-0.822767972946167,0.1412760019302368,-15.68000030517578,-1.1375000476837158,-4.934999942779541
12.14046389073383,-0.2054480016231537,-0.8493639826774597,0.1307840049266815,-17.657499313354492,0.2450000047683715,-5.284999847412109
12.160630774273255,-0.1378600001335144,-0.8691279888153076,0.0546559989452362,-15.994999885559082,3.009999990463257,-2.240000009536743
12.180797657812679,-0.0934519991278648,-0.8164240121841431,-0.0663679987192154,-10.114999771118164,7.244999885559082,1.2599999904632568
12.200964541352104,-0.1119959950447082,-0.7290719747543335,-0.095160000026226,-8.3125,9.414999961853027,-0.5074999928474426
12.221131424891528,-0.1337119936943054,-0.6780759692192078,-0.0422119982540607,-10.797499656677246,9.22249984741211,-2.502500057220459
12.241298308430952,-0.1771439909934997,-0.6226879954338074,-0.0070759998634457,-8.732500076293945,9.11750030517578,0.7350000143051147
12.261465191970377,-0.2049599885940551,-0.5165479779243469,-0.0297679994255304,-6.965000152587891,5.84499979019165,4.025000095367432
12.281632075509801,-0.1849519908428192,-0.4004040062427521,-0.2252119928598404,-12.092499732971191,7.507500171661377,5.267499923706055
12.301798959049226,-0.0983319953083992,0.1239520013332367,-0.3223240077495575,-15.8725004196167,2.012500047683716,3.815000057220459
12.32196584258865,-0.0192760005593299,0.2710839807987213,-0.3947919905185699,-49.122501373291016,15.890000343322754,-22.592500686645508
12.342132726128074,0.1625040024518966,-0.0431879982352256,-0.3211039900779724,-82.40750122070312,13.859999656677246,3.587500095367432
12.362299609667499,-0.1049199998378753,-0.9647759795188904,-0.3906439840793609,-111.59750366210938,50.540000915527344,52.63999938964844
12.382466493206923,-0.305976003408432,-0.7710399627685547,-0.1583559960126876,-45.79750061035156,35.84000015258789,21.15749931335449
12.402633376746348,-0.2737680077552795,-1.0174800157546997,-0.3740519881248474,-40.82749938964844,4.829999923706055,-5.039999961853027
12.422800260285772,-0.3501400053501129,-1.0082080364227295,-0.4248040020465851,-8.819999694824219,-14.03499984741211,-9.029999732971191
12.442967143825197,-0.3862519860267639,-0.681003987789154,-0.5163040161132812,18.14750099182129,-34.10750198364258,-3.884999990463257
12.463134027364621,-0.3974759876728058,-0.6951559782028198,-0.5489999651908875,-31.86750030517578,-34.22999954223633,14.385000228881836
12.483300910904045,-0.4660399854183197,-1.0589599609375,-0.532651960849762,-105.64749908447266,-23.975000381469727,28.979999542236328
12.50346779444347,-0.6278119683265686,-1.2844159603118896,-0.7754319906234741,-150.97250366210938,-5.722499847412109,32.11249923706055
12.523634677982894,-0.6868599653244019,-1.5232919454574585,-1.5293920040130615,-202.9824981689453,5.757500171661377,35.4900016784668
12.543801561522319,-0.7651839852333069,-2.4382920265197754,-2.6420319080352783,-322.2275085449219,49.595001220703125,51.72999954223633
12.563968445061743,-1.0504199266433716,-3.4282000064849854,-0.5338720083236694,-425.739990234375,-15.75,74.63749694824219
12.584135328601167,-0.6258599758148193,-2.773547887802124,0.0954039990901947,-280.4725036621094,-94.18499755859376,92.88999938964844
12.604302212140592,0.3823480010032654,-0.0668559968471527,0.210327997803688,-113.75,-57.04999923706055,39.28749847412109
12.624469095680016,0.8371639847755432,-0.2461960017681121,0.2796239852905273,-227.5,-37.53749847412109,25.917499542236328
12.64463597921944,0.5204519629478455,-0.7539600133895874,-0.264983981847763,-316.9075012207031,54.897499084472656,96.09249877929688
12.664802862758865,-0.2791360020637512,-0.9862479567527772,0.1615279912948608,-252.4375,154.6125030517578,140.13999938964844
12.68496974629829,-0.7595719695091248,-0.4836079776287079,0.0158599987626075,-131.60000610351562,85.17250061035156,147.1925048828125
12.705136629837714,-0.8486319780349731,0.118827998638153,-0.1168759986758232,-59.709999084472656,-32.689998626708984,108.79750061035156
12.725303513377138,-0.6778320074081421,0.468968003988266,-0.3294000029563904,-51.20500183105469,-82.26750183105469,83.19499969482422
12.745470396916563,-0.6919839978218079,0.904263973236084,-0.9984479546546936,-10.797499656677246,-49.54249954223633,104.14250183105467
12.765637280455987,-0.7725039720535278,1.374451994895935,-0.9755119681358336,-50.45249938964844,-38.622501373291016,139.50999450683594
12.785804163995412,-0.7817760109901428,-0.4897079765796661,-1.559891939163208,-294.70001220703125,-18.655000686645508,160.7550048828125
12.805971047534836,-0.5114240050315857,-1.2961280345916748,-1.2539160251617432,-177.8874969482422,-130.1824951171875,123.76000213623048
12.82613793107426,-0.0883279964327812,0.5392400026321411,-1.5894160270690918,55.772499084472656,-140.8050079345703,149.6074981689453
12.846304814613685,-0.6202479600906372,0.7176039814949036,-1.50547993183136,-148.3300018310547,113.19000244140624,151.46249389648438
12.86647169815311,-1.0413919687271118,-0.4418839812278747,-1.5662360191345217,-221.9875030517578,25.14750099182129,100.23999786376952
12.886638581692534,-1.1387479305267334,0.06734399497509,-1.545251965522766,-80.74500274658203,-132.0550079345703,104.07250213623048
12.906805465231958,-1.102147936820984,0.5270400047302246,-2.04447603225708,-27.982500076293945,-237.26499938964844,102.2874984741211
12.926972348771383,-1.1053199768066406,0.2454639971256256,-1.931747913360596,-48.86000061035156,-177.3800048828125,83.35250091552734
12.947139232310807,-1.3078399896621704,0.6675840020179749,-1.5447639226913452,24.27250099182129,-149.74749755859375,54.040000915527344
12.967306115850231,-0.9086560010910034,0.8996279835700989,-1.378600001335144,65.50250244140625,-183.8025054931641,21.612499237060547
12.987472999389656,-0.9745360016822816,1.2143880128860474,-1.0806759595870972,69.16000366210938,-110.4250030517578,11.077500343322754
13.00763988292908,-0.8764479756355286,0.929639995098114,-0.8159359693527222,29.26000022888184,-59.744998931884766,-20.667499542236328
13.027806766468505,-0.6817359924316406,0.4601839780807495,-0.7498120069503784,27.877500534057617,-88.30500030517578,-39.00749969482422
13.047973650007929,-0.558027982711792,0.721019983291626,-0.3623400032520294,83.93000030517578,-187.0399932861328,-34.439998626708984
13.068140533547353,-0.589747965335846,0.5877959728240967,-0.5184999704360962,38.744998931884766,-65.39749908447266,-39.8125
13.088307417086778,-0.4811680018901825,0.2813319861888885,-0.3252519965171814,6.650000095367432,-31.377500534057617,-35.4900016784668
13.108474300626202,-0.4467639923095703,0.1954440027475357,-0.2052039951086044,10.43000030517578,-64.68000030517578,-34.720001220703125
13.128641184165627,-0.3769800066947937,0.5433880090713501,-0.1771439909934997,29.434999465942383,-66.48249816894531,-31.832500457763672
13.148808067705051,-0.420412003993988,0.4570119976997375,-0.1620160043239593,4.340000152587891,-48.125,-17.604999542236328
13.168974951244476,-0.4401759803295135,0.4006479978561401,-0.2666919827461242,-5.355000019073486,-17.3075008392334,-9.292500495910645
13.1891418347839,-0.5558319687843323,0.4679919779300689,-0.2696200013160705,6.579999923706055,13.230000495910645,8.522500038146973
13.209308718323324,-0.4711639881134033,0.5065439939498901,-0.3455039858818054,-20.177499771118164,-57.994998931884766,27.33500099182129
13.229475601862749,-0.5768159627914429,0.419435977935791,-0.2852360010147095,-50.557498931884766,-38.81499862670898,34.334999084472656
13.249642485402173,-0.6666079759597778,0.3023159801959991,-0.1956879943609237,-72.11750030517578,-31.780000686645508,31.27250099182129
13.269809368941598,-0.7051599621772766,0.3903999924659729,-0.1476199924945831,-70.9625015258789,-35.01750183105469,28.489999771118164
13.289976252481022,-0.832040011882782,0.3943039774894714,-0.2110600024461746,-73.62249755859375,-20.28249931335449,25.497499465942383
13.310143136020447,-0.9228079915046692,0.5004439949989319,-0.3037799894809723,-66.8499984741211,-12.582500457763672,21.4375
13.330310019559871,-1.0518839359283447,0.4855599999427795,-0.374783992767334,-73.6050033569336,0.4200000166893005,14.892499923706056
13.350476903099295,-1.1568039655685425,0.5045920014381409,-0.2918239831924438,-73.44750213623047,2.9574999809265137,4.602499961853027
13.37064378663872,-1.0855560302734375,0.4894639849662781,-0.3098799884319305,-79.74749755859375,-5.40749979019165,-1.8200000524520876
13.390810670178144,-1.09580397605896,0.3850319981575012,-0.3152479827404022,-91.9625015258789,-3.4649999141693115,-10.324999809265137
13.410977553717569,-1.062619924545288,0.3130519986152649,-0.2766959965229034,-97.07250213623048,-13.96500015258789,-21.64750099182129
13.431144437256993,-1.044808030128479,0.3203719854354858,-0.2735239863395691,-90.10749816894533,-26.72249984741211,-29.90749931335449
13.451311320796417,-0.9747799634933472,0.3867399990558624,-0.2237479984760284,-73.67500305175781,-18.00749969482422,-28.927499771118164
13.471478204335842,-0.935983955860138,0.2759639918804168,-0.2042279988527298,-69.05500030517578,20.8075008392334,-23.11750030517578
13.491645087875266,-0.9171959757804872,0.1627479940652847,-0.1915400028228759,-50.71500015258789,43.27750015258789,-19.792499542236328
13.51181197141469,-0.8949919939041138,0.0975999981164932,-0.2030079960823059,-27.8075008392334,47.005001068115234,-22.76749992370605
13.531978854954115,-0.8588799834251404,0.1332239955663681,-0.1883679926395416,-5.127500057220459,37.1349983215332,-26.862499237060547
13.55214573849354,-0.8161799907684326,0.1803160011768341,-0.2049599885940551,7.525000095367432,35.560001373291016,-27.26499938964844
13.572312622032964,-0.7886079549789429,0.236191987991333,-0.218868002295494,10.710000038146973,32.47999954223633,-23.8700008392334
13.592479505572388,-0.7956839799880981,0.2237479984760284,-0.2305800020694732,-0.1924999952316284,33.477500915527344,-19.9325008392334
13.612646389111813,-0.8232559561729431,0.2313119918107986,-0.2642520070075989,-9.642499923706056,32.3224983215332,-14.80500030517578
13.632813272651237,-0.8447279930114746,0.2098399996757507,-0.2874319851398468,-19.530000686645508,29.96000099182129,-13.789999961853027
13.652980156190662,-0.8657119870185852,0.2274079918861389,-0.3328160047531128,-22.399999618530277,31.7450008392334,-10.710000038146973
13.673147039730086,-0.8888919949531555,0.2032520025968551,-0.3686839938163757,-26.11000061035156,34.42250061035156,-7.227499961853027
13.69331392326951,-0.904263973236084,0.2054480016231537,-0.4074800014495849,-24.0625,36.18999862670898,-8.802499771118164
13.713480806808935,-0.9135359525680542,0.2325319945812225,-0.4074800014495849,-20.614999771118164,40.51250076293945,-10.53499984741211
13.73364769034836,-0.9293959736824036,0.2359479963779449,-0.4457879960536957,-18.217500686645508,46.3224983215332,-9.904999732971191
13.753814573887784,-0.9491599798202516,0.2093520015478134,-0.4772639870643616,-13.072500228881836,43.41749954223633,-9.922499656677246
13.773981457427208,-0.9594079852104188,0.2086199969053268,-0.4945879876613617,-3.972500085830689,37.59000015258789,-7.472499847412109
13.794148340966633,-0.9462319612503052,0.2274079918861389,-0.5048359632492065,2.694999933242798,31.27250099182129,-3.325000047683716
13.814315224506057,-0.8935279846191406,0.2981680035591125,-0.5123999714851379,9.975000381469728,22.46999931335449,4.637499809265137
13.834482108045481,-0.8874279856681824,0.2393639981746673,-0.4726279973983764,1.5399999618530271,15.154999732971191,5.022500038146973
13.854648991584906,-0.8701039552688599,0.2542479932308197,-0.4621360003948211,1.4524999856948853,10.447500228881836,6.615000247955322
13.87481587512433,-0.8654679656028748,0.249123990535736,-0.4665279984474182,0.332500010728836,6.632500171661377,6.860000133514404
13.894982758663755,-0.8598560094833374,0.2522960007190704,-0.4616479873657226,2.7300000190734863,3.3600001335144043,8.260000228881836
13.915149642203179,-0.8530240058898926,0.2749879956245422,-0.4635999798774719,3.990000009536743,-1.347499966621399,8.837499618530273
13.935316525742603,-0.854487955570221,0.2742559909820556,-0.4577440023422241,2.852499961853028,-5.862500190734863,8.172499656677246
13.955483409282028,-0.8542439937591553,0.2742559909820556,-0.440420001745224,3.184999942779541,-11.40999984741211,7.507500171661377
13.975650292821452,-0.8483879566192627,0.280599981546402,-0.4284639954566955,3.3949999809265137,-15.592499732971191,6.072500228881836
13.995817176360877,-0.8483879566192627,0.297679990530014,-0.4094319939613342,2.6075000762939453,-17.377500534057617,4.042500019073486
14.015984059900301,-0.8515599966049194,0.2827959954738617,-0.4045519828796386,-1.662500023841858,-15.487500190734863,0.6825000047683716
14.036150943439726,-0.8574159741401672,0.2715719938278198,-0.3945479989051819,-3.0274999141693115,-15.015000343322754,-0.699999988079071
14.05631782697915,-0.8610759973526001,0.27742800116539,-0.3899119794368744,-3.0450000762939453,-14.4375,-1.399999976158142
14.076484710518574,-0.8661999702453613,0.2840159833431244,-0.3813720047473907,-4.252500057220459,-13.352499961853027,-2.257499933242798
14.096651594057999,-0.8774240016937256,0.2683999836444855,-0.3725879788398742,-6.107500076293945,-10.832500457763672,-3.202500104904175
14.116818477597423,-0.8737639784812927,0.2705959975719452,-0.3806400001049042,-6.090000152587891,-9.135000228881836,-3.692500114440918
14.136985361136848,-0.876691997051239,0.2625440061092376,-0.3708800077438354,-6.212500095367432,-7.052500247955322,-3.797500133514404
14.157152244676272,-0.876691997051239,0.2579079866409302,-0.3647799789905548,-5.635000228881836,-5.53000020980835,-3.622499942779541
14.177319128215697,-0.8754720091819763,0.2493679970502853,-0.3598999977111816,-4.182499885559082,-4.042500019073486,-3.0975000858306885
14.197486011755121,-0.8732759952545166,0.2518079876899719,-0.3616079986095428,-2.309999942779541,-1.9774999618530276,-2.275000095367432
14.217652895294545,-0.8654679656028748,0.2520520091056824,-0.3601439893245697,0.1050000041723251,1.715000033378601,-0.9800000190734864
14.23781977883397,-0.8647359609603882,0.2537599802017212,-0.3635599911212921,0.7175000309944153,3.640000104904175,-0.3149999976158142
14.257986662373394,-0.8652240037918091,0.2569319903850555,-0.3691720068454742,0.875,5.127500057220459,0.1574999988079071
14.278153545912819,-0.8657119870185852,0.2571759819984436,-0.3752720057964325,0.9449999928474426,6.387499809265137,0.4724999964237213
14.298320429452243,-0.867419958114624,0.2644959986209869,-0.3816159963607788,1.0850000381469729,7.105000019073486,0.7175000309944153
14.318487312991667,-0.8679080009460449,0.2657159864902496,-0.387715995311737,0.5249999761581421,7.647500038146973,0.699999988079071
14.338654196531092,-0.8705919981002808,0.264739990234375,-0.3957679867744446,0.2450000047683715,7.857500076293945,0.6299999952316284
14.358821080070516,-0.8710799813270569,0.2674239873886108,-0.4008919894695282,0.5950000286102295,7.227499961853027,0.6299999952316284
14.37898796360994,-0.8713240027427673,0.2696200013160705,-0.4055279791355133,0.6299999952316284,6.28249979019165,0.4724999964237213
14.399154847149365,-0.87254399061203,0.2710839807987213,-0.4104079902172088,0.875,4.340000152587891,0.2450000047683715
14.41932173068879,-0.8701039552688599,0.273279994726181,-0.4091880023479461,0.6825000047683716,3.430000066757202,0.0175000000745058
14.439488614228214,-0.8710799813270569,0.2686440050601959,-0.411871999502182,0.1050000041723251,1.995000004768372,-0.4025000035762787
14.459655497767638,-0.8681519627571106,0.2683999836444855,-0.4111399948596954,-0.2100000083446502,0.7524999976158142,-0.5249999761581421
14.479822381307063,-0.8666880130767822,0.2642520070075989,-0.4028439819812774,-0.6650000214576721,-0.0874999985098838,-0.8224999904632568
14.499989264846487,-0.8681519627571106,0.2635200023651123,-0.4047960042953491,-0.3499999940395355,-0.2800000011920929,-0.7175000309944153
14.520156148385912,-0.8661999702453613,0.2637639939785003,-0.4040639996528625,-0.0700000002980232,-0.7350000143051147,-0.4724999964237213
14.540323031925336,-0.8679080009460449,0.2625440061092376,-0.4023559987545013,-0.2450000047683715,-1.2599999904632568,-0.332500010728836
14.56048991546476,-0.8691279888153076,0.2657159864902496,-0.4021120071411133,-0.2100000083446502,-1.5575000047683716,-0.1225000023841857
14.580656799004185,-0.8669319748878479,0.2642520070075989,-0.3960119783878326,-0.4900000095367431,-1.5049999952316284,-0.1050000041723251
14.60082368254361,-0.8627839684486389,0.2598600089550018,-0.3899119794368744,-0.7175000309944153,-1.2599999904632568,-0.1574999988079071
14.620990566083034,-0.8632720112800598,0.2593719959259033,-0.3913759887218475,-0.332500010728836,-0.4550000131130218,-0.0175000000745058
14.641157449622458,-0.8637599945068359,0.2622999846935272,-0.3916199803352356,0.0350000001490116,0.3149999976158142,0.2800000011920929
14.661324333161883,-0.8652240037918091,0.2640079855918884,-0.3952800035476684,0.0525000020861625,0.7699999809265137,0.612500011920929
14.681491216701307,-0.8652240037918091,0.2659600079059601,-0.3947919905185699,0.3149999976158142,0.5600000023841858,0.875
14.701658100240731,-0.8669319748878479,0.2701079845428467,-0.3962559998035431,0.6299999952316284,0.5600000023841858,0.6650000214576721
14.721824983780156,-0.868395984172821,0.2693759799003601,-0.3969880044460296,0.8050000071525574,1.0325000286102295,0.2975000143051147
14.74199186731958,-0.8701039552688599,0.2698639929294586,-0.3967439830303192,1.0674999952316284,1.5049999952316284,-0.0874999985098838
14.762158750859005,-0.868395984172821,0.2693759799003601,-0.3977199792861938,0.875,1.924999952316284,-0.4724999964237213
14.782325634398429,-0.868395984172821,0.269131988286972,-0.3989399969577789,0.4375,2.134999990463257,-0.7350000143051147
14.802492517937853,-0.8676639795303345,0.2674239873886108,-0.4006479978561401,0.1050000041723251,2.0299999713897705,-0.8575000166893005
14.822659401477278,-0.8657119870185852,0.2683999836444855,-0.4018679857254028,-0.1574999988079071,1.924999952316284,-0.8575000166893005
14.842826285016702,-0.8664439916610718,0.2676680088043213,-0.4052839875221252,-0.9975000023841858,1.7675000429153442,-1.190000057220459
14.862993168556127,-0.8654679656028748,0.2579079866409302,-0.4016239941120147,-0.6825000047683716,1.6100000143051147,-0.8924999833106995
14.883160052095551,-0.8635159730911255,0.2749879956245422,-0.407723993062973,-0.4025000035762787,1.190000057220459,-0.7875000238418579
14.903326935634976,-0.8630279898643494,0.2579079866409302,-0.4008919894695282,-1.5049999952316284,0.9275000095367432,-1.2599999904632568
14.9234938191744,-0.8620519638061523,0.2635200023651123,-0.4025999903678894,-0.6825000047683716,1.0325000286102295,-0.7699999809265137
14.943660702713824,-0.8615639805793762,0.2644959986209869,-0.4023559987545013,-0.8050000071525574,0.875,-0.8050000071525574
14.963827586253249,-0.8625400066375732,0.2627879977226257,-0.4013800024986267,-0.7875000238418579,0.7875000238418579,-0.5774999856948853
14.983994469792673,-0.8669319748878479,0.2657159864902496,-0.4043079912662506,-1.0674999952316284,0.4900000095367431,-0.7699999809265137
15.004161353332098,-0.8659560084342957,0.269131988286972,-0.4040639996528625,-0.8400000333786011,0.2800000011920929,-0.7875000238418579
15.024328236871522,-0.8676639795303345,0.2676680088043213,-0.4050399959087372,-1.1200000047683716,0.4200000166893005,-0.9275000095367432
15.044495120410946,-0.8669319748878479,0.2652280032634735,-0.4040639996528625,-1.1200000047683716,0.3499999940395355,-0.9275000095367432
15.064662003950371,-0.8671759963035583,0.2644959986209869,-0.403575986623764,-0.7699999809265137,0.2100000083446502,-0.9100000262260436
15.084828887489795,-0.8652240037918091,0.2679120004177093,-0.4008919894695282,-0.5774999856948853,0.1050000041723251,-0.875
15.10499577102922,-0.8642479777336121,0.2657159864902496,-0.3996720016002655,-0.7875000238418579,0.1924999952316284,-0.962499976158142
15.125162654568644,-0.8627839684486389,0.264739990234375,-0.3972319960594177,-1.0499999523162842,0.4200000166893005,-1.0499999523162842
15.145329538108069,-0.8635159730911255,0.2657159864902496,-0.3982079923152923,-1.4350000619888306,0.7350000143051147,-1.1725000143051147
15.165496421647493,-0.8632720112800598,0.2676680088043213,-0.3996720016002655,-1.995000004768372,0.9100000262260436,-1.3125
15.185663305186917,-0.8644919991493225,0.2632759809494018,-0.4004040062427521,-2.275000095367432,1.0674999952316284,-1.347499966621399
15.205830188726342,-0.8659560084342957,0.2620559930801391,-0.4023559987545013,-1.924999952316284,1.2949999570846558,-1.3300000429153442
15.225997072265766,-0.8661999702453613,0.260591983795166,-0.4038199782371521,-1.627500057220459,1.4175000190734863,-1.3125
15.24616395580519,-0.8642479777336121,0.2693759799003601,-0.3999159932136535,-1.0850000381469729,1.0850000381469729,-1.1375000476837158
15.266330839344615,-0.8649799823760986,0.2627879977226257,-0.4018679857254028,-2.065000057220459,1.2599999904632568,-1.2949999570846558
15.28649772288404,-0.8652240037918091,0.2630319893360138,-0.4045519828796386,-1.6974999904632568,1.2949999570846558,-1.1549999713897705
15.306664606423464,-0.8654679656028748,0.2642520070075989,-0.403331995010376,-1.4175000190734863,1.0499999523162842,-0.9449999928474426
15.326831489962888,-0.8649799823760986,0.2657159864902496,-0.403575986623764,-1.4175000190734863,0.8224999904632568,-0.9275000095367432
15.346998373502313,-0.8635159730911255,0.2659600079059601,-0.4021120071411133,-1.715000033378601,0.8924999833106995,-1.1024999618530271
15.367165257041737,-0.8647359609603882,0.2635200023651123,-0.4021120071411133,-1.784999966621399,0.9975000023841858,-1.2424999475479126
15.387332140581162,-0.8657119870185852,0.2642520070075989,-0.4040639996528625,-1.6449999809265137,1.0325000286102295,-1.2074999809265137
15.407499024120586,-0.8637599945068359,0.2657159864902496,-0.4018679857254028,-1.627500057220459,0.8400000333786011,-1.1725000143051147
15.42766590766001,-0.8647359609603882,0.2632759809494018,-0.4013800024986267,-1.8025000095367432,0.6825000047683716,-1.190000057220459
15.447832791199435,-0.8649799823760986,0.2635200023651123,-0.403331995010376,-1.7324999570846558,0.8224999904632568,-1.0674999952316284
15.46799967473886,-0.8664439916610718,0.2632759809494018,-0.4072359800338745,-1.5575000047683716,0.6474999785423279,-1.0149999856948853
15.488166558278284,-0.8669319748878479,0.2664479911327362,-0.4062599837779999,-1.2599999904632568,0.1924999952316284,-0.962499976158142
15.508333441817708,-0.8654679656028748,0.2681559920310974,-0.4023559987545013,-1.3125,0.1924999952316284,-0.8924999833106995
15.528500325357133,-0.8635159730911255,0.2630319893360138,-0.3982079923152923,-1.837499976158142,0.3675000071525574,-1.1200000047683716
15.548667208896557,-0.8605879545211792,0.2620559930801391,-0.3916199803352356,-1.5924999713897705,0.8400000333786011,-1.399999976158142
15.568834092435981,-0.8610759973526001,0.2635200023651123,-0.3974759876728058,-2.572499990463257,0.8575000166893005,-1.5049999952316284
15.589000975975406,-0.8630279898643494,0.2576639950275421,-0.4008919894695282,-2.625,2.0299999713897705,-1.2424999475479126
15.60916785951483,-0.8659560084342957,0.2754760086536407,-0.4062599837779999,-2.275000095367432,1.662500023841858,-0.8400000333786011
15.629334743054255,-0.8691279888153076,0.2671799957752228,-0.4089439809322357,-3.884999990463257,0.6650000214576721,-1.6449999809265137
15.649501626593679,-0.8652240037918091,0.2664479911327362,-0.399427980184555,-2.5199999809265137,1.1200000047683716,-1.3125
15.669668510133103,-0.8681519627571106,0.2681559920310974,-0.4079679846763611,-2.6075000762939453,0.8050000071525574,-1.75
15.689835393672528,-0.8654679656028748,0.2601040005683899,-0.4006479978561401,-2.047499895095825,1.1725000143051147,-1.7675000429153442
15.710002277211952,-0.867419958114624,0.2674239873886108,-0.4047960042953491,-1.2074999809265137,1.5575000047683716,-1.627500057220459
15.730169160751377,-0.867419958114624,0.2676680088043213,-0.4028439819812774,-1.2599999904632568,1.5750000476837158,-1.8725000619888303
15.750336044290801,-0.8652240037918091,0.2610799968242645,-0.4101639986038208,-2.0299999713897705,1.0674999952316284,-1.680000066757202
15.770502927830226,-0.8669319748878479,0.2640079855918884,-0.4074800014495849,-1.9774999618530276,0.5774999856948853,-1.3125
15.79066981136965,-0.8669319748878479,0.2613239884376526,-0.4045519828796386,-2.2225000858306885,-0.2100000083446502,-1.2424999475479126
15.810836694909074,-0.8703479766845703,0.2561999857425689,-0.4062599837779999,-1.5225000381469729,-0.2450000047683715,-1.1725000143051147
15.831003578448499,-0.8693720102310181,0.2654719948768616,-0.4082120060920715,-0.5950000286102295,-0.6299999952316284,-1.1549999713897705
15.851170461987923,-0.8776679635047913,0.2749879956245422,-0.4055279791355133,-1.5049999952316284,-0.612500011920929,-1.4524999856948853
15.871337345527348,-0.9032880067825316,0.2498559951782226,-0.4465200006961822,-3.587500095367432,-0.5600000023841858,-1.662500023841858
15.891504229066772,-0.9513559937477112,0.185928001999855,-0.4997119903564453,4.322500228881836,-8.505000114440918,2.309999942779541
15.911671112606196,-0.9916160106658936,0.2420479953289032,-0.5270400047302246,23.170000076293945,-22.5049991607666,9.432499885559082
15.931837996145621,-0.977463960647583,0.2635200023651123,-0.5058119893074036,32.91749954223633,-36.977500915527344,12.512499809265137
15.952004879685045,-0.9174399971961976,0.3067080080509186,-0.4262679815292358,35.42000198364258,-44.32749938964844,12.739999771118164
15.97217176322447,-0.8537560105323792,0.330375999212265,-0.3957679867744446,29.71500015258789,-39.67250061035156,9.15250015258789
15.992338646763894,-0.8335039615631104,0.3113439977169037,-0.4047960042953491,18.795000076293945,-34.73749923706055,5.6875
16.01250553030332,-0.8500959873199463,0.2757200002670288,-0.3945479989051819,9.362500190734863,-35.01750183105469,4.53249979019165
16.032672413842743,-0.8801079988479614,0.2325319945812225,-0.3806400001049042,5.652500152587891,-38.307498931884766,2.6424999237060547
16.052839297382167,-0.9189040064811708,0.2274079918861389,-0.3969880044460296,9.642499923706056,-41.685001373291016,1.715000033378601
16.073006180921592,-0.929152011871338,0.2601040005683899,-0.3908880054950714,14.5600004196167,-44.15250015258789,0.4025000035762787
16.093173064461016,-0.9293959736824036,0.2928000092506408,-0.3647799789905548,15.977499961853027,-46.375,-2.9574999809265137
16.11333994800044,-0.9372040033340454,0.3357439935207367,-0.3533119857311249,14.5600004196167,-45.9900016784668,-4.550000190734863
16.133506831539865,-0.9289079904556274,0.3659999966621399,-0.3284240067005157,7.735000133514404,-47.040000915527344,-4.53249979019165
16.15367371507929,-0.9067040085792542,0.3211039900779724,-0.2954840064048767,-9.012499809265137,-47.67000198364258,-5.897500038146973
16.173840598618714,-0.92085599899292,0.2701079845428467,-0.2884079813957214,-21.2450008392334,-46.54999923706055,-6.28249979019165
16.19400748215814,-0.9642879962921144,0.2305800020694732,-0.3006079792976379,-20.63249969482422,-52.08000183105469,-5.389999866485596
16.214174365697563,-0.9762439727783204,0.2710839807987213,-0.2659600079059601,-13.5625,-53.970001220703125,-6.054999828338623
16.234341249236987,-0.9559919834136964,0.3028039932250976,-0.2476599961519241,-10.517499923706056,-54.96749877929688,-7.367499828338623
16.25450813277641,-0.9513559937477112,0.284991979598999,-0.220331996679306,-13.842499732971191,-57.04999923706055,-7.857500076293945
16.274675016315836,-0.944767951965332,0.2364359945058822,-0.1793399900197982,-18.58500099182129,-64.34750366210938,-7.71750020980835
16.29484189985526,-0.9440360069274902,0.2049599885940551,-0.1315159946680069,-19.530000686645508,-65.44999694824219,-6.335000038146973
16.315008783394685,-0.9486719965934752,0.2215519994497299,-0.1664080023765564,-19.565000534057617,-63.71749877929688,-5.372499942779541
16.33517566693411,-0.9025560021400452,0.2549799978733063,-0.1664080023765564,-22.540000915527344,-67.32250213623047,-4.007500171661377
16.355342550473534,-0.907435953617096,0.2898719906806946,-0.1315159946680069,-29.662500381469727,-70.13999938964844,-2.2225000858306885
16.375509434012958,-0.901579976081848,0.248879998922348,-0.1415199935436248,-39.98749923706055,-77.19249725341797,0.8224999904632568
16.395676317552383,-0.8679080009460449,0.2547360062599182,-0.05197199806571,-40.022499084472656,-88.0425033569336,-1.277500033378601
16.415843201091807,-0.9057279825210572,0.2793799936771393,-0.0517279990017414,-40.057498931884766,-91.6999969482422,-7.122499942779541
16.43601008463123,-0.9430599808692932,0.2735239863395691,-0.1071159988641738,-46.130001068115234,-100.48500061035156,-12.61750030517578
16.456176968170656,-0.9684360027313232,0.2693759799003601,-0.0163480006158351,-47.915000915527344,-107.3625030517578,-18.287500381469727
16.47634385171008,-0.9818559885025024,0.2901159822940826,0.0387960001826286,-40.75749969482422,-108.46500396728516,-20.71999931335449
16.496510735249505,-0.958187997341156,0.2703520059585571,0.0424560010433197,-32.252498626708984,-109.14749908447266,-22.3125
16.51667761878893,-0.8630279898643494,0.2749879956245422,0.1783639937639236,-28.420000076293945,-119.77000427246094,-21.665000915527344
16.536844502328353,-0.975268006324768,0.4274879992008209,0.2034959942102432,-42.01750183105469,-153.87750244140625,-13.842499732971191
16.557011385867778,-0.9389119744300842,0.2132560014724731,0.338916003704071,-56.94499969482422,-144.21749877929688,-15.154999732971191
16.577178269407202,-0.9389119744300842,0.1115079969167709,0.4428599774837494,-65.20500183105469,-129.83250427246094,-20.28249931335449
16.597345152946627,-0.8620519638061523,-0.0085399998351931,0.5658360123634338,-58.17000198364258,-122.65750122070312,-23.502500534057617
16.61751203648605,-0.8666880130767822,0.0451399981975555,0.5609560012817383,-38.90250015258789,-107.0824966430664,-23.48500061035156
16.637678920025476,-0.7795799970626831,0.1298079937696457,0.6387919783592224,-27.457500457763672,-96.61750030517578,-24.342500686645508
16.6578458035649,-0.6890559792518616,0.1766559928655624,0.6790519952774048,-27.07250022888184,-80.98999786376953,-21.47249984741211
16.678012687104324,-0.6180520057678223,0.1768999993801117,0.7344399690628052,-44.46749877929688,-65.64250183105469,-22.90749931335449
16.69817957064375,-0.6888119578361511,0.157379999756813,0.6378160119056702,-56.27999877929688,-47.26750183105469,-30.239999771118164
16.718346454183173,-0.7285839915275574,0.1932480037212371,0.7032079696655273,-59.79750061035156,-36.34749984741211,-36.29500198364258
16.738513337722598,-0.8208159804344177,0.0993079990148544,0.7232159972190857,-68.12750244140625,-5.949999809265137,-40.95000076293945
16.758680221262022,-0.7817760109901428,-0.0470919981598854,0.6487959623336792,-53.900001525878906,10.710000038146973,-42.71749877929688
16.778847104801446,-0.8105679750442505,-0.0580720007419586,0.6666079759597778,-37.04750061035156,30.170000076293945,-45.92000198364258
16.79901398834087,-0.7024759650230408,0.0595359988510608,0.7986119985580444,-21.420000076293945,34.89500045776367,-50.032501220703125
16.819180871880295,-0.867419958114624,0.0749079957604408,0.7847039699554443,-37.65999984741211,63.682498931884766,-59.37749862670898
16.83934775541972,-0.7881199717521667,-0.2220399975776672,0.7520079612731934,-36.17250061035156,76.05500030517578,-55.317501068115234
16.859514638959144,-0.7612800002098083,-0.3411119878292084,0.7193120121955872,-13.457500457763672,83.05500030517578,-46.98749923706055
16.87968152249857,-0.84716796875,-0.2322880029678344,0.6697800159454346,5.897500038146973,90.40499877929688,-42.0525016784668
16.899848406037993,-0.9096319675445556,-0.1000399962067604,0.6771000027656555,10.552499771118164,96.84500122070312,-41.91249847412109
16.920015289577417,-0.9796599745750428,0.0087839998304843,0.6329360008239746,13.212499618530272,100.59000396728516,-39.900001525878906
16.940182173116842,-1.0228480100631714,-0.0058559998869895,0.6400119662284851,11.375,102.6374969482422,-35.13999938964844
16.960349056656266,-0.9506239891052246,-0.0302559994161129,0.6444039940834045,7.875,99.8375015258789,-29.45249938964844
16.98051594019569,-0.9162200093269348,-0.1115079969167709,0.5575399994850159,3.2725000381469727,99.95999908447266,-22.52250099182129
17.000682823735115,-0.9135359525680542,-0.105163998901844,0.4989799857139587,1.4350000619888306,103.6875,-21.717500686645508
17.02084970727454,-0.8974319696426392,-0.118827998638153,0.419435977935791,2.432500123977661,114.41500091552734,-23.8700008392334
17.041016590813964,-0.8940159678459167,-0.1373720020055771,0.3328160047531128,-2.625,125.89500427246094,-24.9375
17.06118347435339,-0.9264679551124572,-0.2508319914340973,0.2071560025215149,-2.992500066757202,131.4949951171875,-24.5
17.081350357892813,-0.9994239807128906,-0.2457079887390136,0.0980879962444305,4.497499942779541,130.84750366210938,-25.07749938964844
17.101517241432237,-1.070915937423706,-0.2249680012464523,-0.0300120003521442,17.377500534057617,131.75750732421875,-21.50749969482422
17.12168412497166,-1.0057679414749146,-0.1378600001335144,-0.0468479990959167,26.98500061035156,129.79750061035156,-18.39249992370605
17.141851008511086,-0.9528200030326844,-0.1239520013332367,-0.0775920003652572,31.65749931335449,129.3074951171875,-13.142499923706056
17.16201789205051,-0.905239999294281,-0.109555996954441,-0.1207799986004829,31.7450008392334,127.99500274658205,-13.52750015258789
17.182184775589935,-0.9262239933013916,-0.1022359952330589,-0.1681160032749176,28.542499542236328,130.84750366210938,-18.165000915527344
17.20235165912936,-0.9635559916496276,-0.1610399931669235,-0.1246839985251426,25.95249938964844,125.31749725341795,-18.32250022888184
17.222518542668784,-0.935252010822296,-0.1168759986758232,-0.1412760019302368,31.920000076293945,119.05249786376952,-18.30500030517578
17.242685426208208,-0.9247599840164183,-0.105163998901844,-0.1895879954099655,32.77750015258789,108.27249908447266,-12.25
17.262852309747633,-0.8981639742851257,-0.1361519992351532,-0.2308239936828613,31.09749984741211,101.48249816894533,-6.264999866485596
17.283019193287057,-0.7998319864273071,-0.1544519960880279,-0.2442439943552017,26.6875,92.76750183105467,-5.775000095367432
17.30318607682648,-0.7890959978103638,-0.2181359976530075,-0.314516007900238,21.350000381469727,88.58499908447266,-8.137499809265137
17.323352960365906,-0.7256559729576111,-0.201787993311882,-0.3052439987659454,22.434999465942383,79.11750030517578,-6.317500114440918
17.34351984390533,-0.6780759692192078,-0.2376559972763061,-0.3150039911270141,17.167499542236328,74.8125,-3.4825000762939453
17.363686727444755,-0.6297639608383179,-0.2964600026607513,-0.2669360041618347,11.550000190734863,67.8125,-1.3125
17.38385361098418,-0.6727079749107361,-0.3289119899272918,-0.2993879914283752,6.965000152587891,57.57500076293945,-2.240000009536743
17.404020494523603,-0.9137799739837646,-0.4208999872207641,-0.4226079881191253,19.372499465942383,32.77750015258789,-17.657499313354492
17.424187378063028,-0.938423991203308,-0.3911319971084595,-0.3911319971084595,29.76749992370605,11.40999984741211,-25.479999542236328
17.444354261602452,-0.9454999566078186,-0.3537999987602234,-0.4013800024986267,37.2400016784668,-5.932499885559082,-30.362499237060547
17.464521145141877,-0.9533079862594604,-0.3784439861774444,-0.4065040051937103,44.20500183105469,-22.662500381469727,-36.084999084472656
17.4846880286813,-0.9088999629020692,-0.4055279791355133,-0.4013800024986267,50.64500045776367,-36.73250198364258,-44.625
17.504854912220726,-0.8498519659042358,-0.4360280036926269,-0.3777119815349579,52.657501220703125,-47.775001525878906,-53.04249954223633
17.52502179576015,-0.835211992263794,-0.4418839812278747,-0.375027984380722,51.852500915527344,-56.06999969482422,-59.56999969482422
17.545188679299574,-0.8720560073852539,-0.4418839812278747,-0.3689279854297638,49.244998931884766,-65.13500213623047,-62.5625
17.565355562839,-0.8803519606590271,-0.4189479947090149,-0.3655119836330414,48.47499847412109,-77.48999786376953,-62.369998931884766
17.585522446378423,-0.8625400066375732,-0.4779959917068481,-0.3162239789962768,43.45249938964844,-85.6624984741211,-63.36750030517578
17.605689329917848,-0.8525359630584717,-0.5172799825668335,-0.3091479837894439,38.63999938964844,-86.01249694824219,-65.15250396728516
17.625856213457272,-0.8405799865722656,-0.5143519639968872,-0.2881639897823334,33.86249923706055,-85.15499877929688,-68.45999908447266
17.646023096996696,-0.856440007686615,-0.5975559949874878,-0.2378999888896942,23.76499938964844,-80.34249877929688,-71.88999938964844
17.66618998053612,-0.8474119901657104,-0.6158559918403625,-0.2064239978790283,23.3799991607666,-78.06749725341797,-75.86250305175781
17.686356864075545,-0.8720560073852539,-0.7158960103988647,-0.1600639969110489,29.5575008392334,-75.30249786376953,-78.59249877929688
17.70652374761497,-0.7502999901771545,-0.6324479579925537,-0.1073599979281425,35.8224983215332,-89.11000061035156,-79.92250061035156
17.726690631154394,-0.695643961429596,-0.5646159648895264,-0.023667998611927,29.627500534057617,-87.76249694824219,-79.69499969482422
17.74685751469382,-0.5890159606933594,-0.5446079969406128,0.0239119995385408,19.0575008392334,-85.87249755859375,-79.85250091552734
17.767024398233243,-0.5753520131111145,-0.5963360071182251,0.0129319997504353,9.239999771118164,-74.65499877929688,-74.41000366210938
17.787191281772667,-0.5463159680366516,-0.6241520047187805,0.1097999960184097,3.220000028610229,-66.65750122070312,-66.76249694824219
17.807358165312092,-0.5602239966392517,-0.6546519994735718,0.1395680010318756,-3.0625,-56.962501525878906,-57.29500198364258
17.827525048851516,-0.5707159638404846,-0.6651439666748047,0.0888160020112991,-10.13249969482422,-43.81999969482422,-50.62749862670898
17.84769193239094,-0.6063399910926819,-0.656603991985321,0.0807639956474304,-17.71000099182129,-45.08000183105469,-46.04249954223633
17.867858815930365,-0.6131719946861267,-0.6941800117492676,0.0907679945230484,-23.4325008392334,-54.38999938964844,-40.845001220703125
17.88802569946979,-0.5614439845085144,-0.6814919710159302,0.0724679976701736,-19.145000457763672,-63.209999084472656,-39.060001373291016
17.908192583009214,-0.5709599852561951,-0.6458680033683777,0.0639280006289482,-12.232500076293944,-61.494998931884766,-40.18000030517578
17.92835946654864,-0.606827974319458,-0.6663640141487122,0.1056519970297813,-12.529999732971191,-57.994998931884766,-44.1349983215332
17.948526350088063,-0.6602640151977539,-0.6775879859924316,0.1117519959807396,-13.037500381469728,-42.647499084472656,-41.0724983215332
17.968693233627487,-0.6258599758148193,-0.7437120079994202,0.0922319963574409,-19.31999969482422,-40.337501525878906,-38.13249969482422
17.98886011716691,-0.6085360050201416,-0.8078839778900146,0.065880000591278,-22.977500915527344,-36.04999923706055,-48.47499847412109
18.009027000706336,-0.5233799815177917,-0.7051599621772766,0.0936959981918335,-26.075000762939453,-24.850000381469727,-51.20500183105469
18.02919388424576,-0.6039000153541565,-0.6873480081558228,0.1237079948186874,-32.8125,-25.39249992370605,-36.68000030517578
18.049360767785185,-0.696619987487793,-0.7337079644203186,0.17323999106884,-39.91749954223633,-36.3125,-34.42250061035156
18.06952765132461,-0.6858839988708496,-0.7246800065040588,0.196175992488861,-42.57749938964844,-54.25,-47.51250076293945
18.089694534864034,-0.5755959749221802,-0.7642079591751099,0.224723994731903,-43.505001068115234,-39.77750015258789,-62.63249969482422
18.109861418403458,-0.5431439876556396,-0.815447986125946,0.3245199918746948,-41.03749847412109,-22.732500076293945,-53.900001525878906
18.130028301942883,-0.6080479621887207,-0.965507984161377,0.3184199929237366,-43.470001220703125,-29.575000762939453,-34.15999984741211
18.150195185482307,-0.6383039951324463,-1.0909240245819092,0.3401359915733337,-28.89249992370605,-27.70249938964844,-31.20249938964844
18.17036206902173,-0.6658759713172913,-1.2138999700546265,0.3391599953174591,-5.25,-21.962499618530277,-31.79750061035156
