Time (seconds),acc_x,acc_y,acc_z,gyro_x,gyro_y,gyro_z
0.020169510385756675,-0.1444479972124099,-0.985759973526001,0.0617319978773593,1.5225000381469729,-0.9100000262260436,-0.8924999833106995
0.04033902077151335,-0.1444479972124099,-0.9830759763717652,0.0580720007419586,0.332500010728836,-4.025000095367432,-0.9449999928474426
0.06050853115727002,-0.1420079916715622,-0.9852719902992249,0.0583159998059272,-1.0325000286102295,-6.929999828338623,-0.8224999904632568
0.0806780415430267,-0.1324919909238815,-0.9989359974861144,0.052947998046875,-2.1875,-8.960000038146973,-0.5774999856948853
0.10084755192878338,-0.1234639957547187,-0.9889319539070128,0.0505079999566078,-1.924999952316284,-10.832500457763672,-0.2975000143051147
0.12101706231454006,-0.1254159957170486,-0.9874680042266846,0.0483120009303092,-2.5899999141693115,-11.585000038146973,-0.3849999904632568
0.14118657270029672,-0.109555996954441,-0.9984479546546936,0.0487999990582466,-1.8200000524520876,-11.987500190734863,0.1400000005960464
0.1613560830860534,-0.0917439982295036,-1.001863956451416,0.0524599999189376,-0.8224999904632568,-10.797499656677246,0.1574999988079071
0.18152559347181008,-0.076615996658802,-1.0003999471664429,0.0627079978585243,0.5074999928474426,-8.539999961853027,0.1225000023841857
0.20169510385756675,-0.0692960023880004,-1.0008879899978638,0.0631959959864616,0.8400000333786011,-6.107500076293945,0.1574999988079071
0.22186461424332343,-0.0741759985685348,-1.0047919750213623,0.0553879998624324,1.0325000286102295,-3.7799999713897705,0.0175000000745058
0.2420341246290801,-0.0834480002522468,-1.0035719871520996,0.0551439970731735,2.502500057220459,-1.4175000190734863,-0.3849999904632568
0.2622036350148368,-0.085156001150608,-0.9933239817619324,0.062219999730587,4.269999980926514,0.7175000309944153,-0.8575000166893005
0.28237314540059344,-0.0883279964327812,-0.9830759763717652,0.0700279995799064,5.179999828338623,2.747499942779541,-0.9975000023841858
0.3025426557863501,-0.0863759964704513,-0.9750239849090576,0.0778359994292259,5.09250020980835,4.130000114440918,-0.7350000143051147
0.32271216617210674,-0.0861319974064827,-0.977952003479004,0.0819839984178543,3.569999933242798,5.722499847412109,-0.3149999976158142
0.3428816765578634,-0.0868639945983886,-0.986735999584198,0.0810080021619796,2.1700000762939453,7.139999866485596,0.0350000001490116
0.36305118694362004,-0.0880839973688125,-0.9894199967384338,0.0812520012259483,1.4874999523162842,8.487500190734863,0.1225000023841857
0.3832206973293767,-0.0910120010375976,-0.9913719892501832,0.0780799984931945,1.347499966621399,9.852499961853027,-0.1924999952316284
0.40339020771513334,-0.0949160009622573,-0.9984479546546936,0.0707599967718124,1.5750000476837158,10.86750030517578,-0.3499999940395355
0.42355971810089,-0.1017479971051216,-0.9967399835586548,0.0692960023880004,2.134999990463257,11.88249969482422,-0.7175000309944153
0.44372922848664664,-0.1097999960184097,-0.9852719902992249,0.0692960023880004,2.450000047683716,12.074999809265137,-0.875
0.4638987388724033,-0.1198039948940277,-0.9823439717292786,0.0707599967718124,1.837499976158142,11.74250030517578,-0.4900000095367431
0.48406824925815994,-0.1271239966154098,-0.9835639595985411,0.0712479948997497,0.9800000190734864,10.9375,-0.2100000083446502
0.5042377596439166,-0.1322479993104934,-0.9916160106658936,0.0675880014896392,0.4900000095367431,9.65999984741211,-0.0874999985098838
0.5244072700296732,-0.1349319964647293,-0.9974719882011414,0.0617319978773593,0.5950000286102295,7.840000152587891,-0.1400000005960464
0.5445767804154299,-0.1417640000581741,-1.0040600299835205,0.0548999980092048,1.924999952316284,4.917500019073486,-0.9100000262260436
0.5647462908011865,-0.1420079916715622,-0.9969840049743652,0.0641719996929168,2.6075000762939453,3.4825000762939453,-1.347499966621399
0.5849158011869432,-0.1366399973630905,-0.9835639595985411,0.062219999730587,2.992500066757202,1.5750000476837158,-1.4350000619888306
0.6050853115726998,-0.1337119936943054,-0.9823439717292786,0.0627079978585243,2.345000028610229,-0.0175000000745058,-0.9800000190734864
0.6252548219584565,-0.1315159946680069,-0.9913719892501832,0.0624639987945556,1.627500057220459,-1.190000057220459,-0.4900000095367431
0.6454243323442131,-0.1222440004348754,-1.0011320114135742,0.0631959959864616,1.680000066757202,-2.0824999809265137,-0.2275000065565109
0.6655938427299698,-0.1154119968414306,-0.9947879910469056,0.065880000591278,2.572499990463257,-2.572499990463257,-0.1749999970197677
0.6857633531157264,-0.1093119978904724,-0.9877119660377502,0.065880000591278,3.0799999237060547,-2.555000066757202,-0.1400000005960464
0.7059328635014831,-0.1097999960184097,-0.9869799613952636,0.0675880014896392,3.132499933242798,-2.134999990463257,0.0700000002980232
0.7261023738872397,-0.109555996954441,-0.9860039949417114,0.0678320005536079,3.0799999237060547,-1.7324999570846558,0.3149999976158142
0.7462718842729964,-0.1112639978528022,-0.9840520024299622,0.066611997783184,2.6600000858306885,-1.4175000190734863,0.3499999940395355
0.766441394658753,-0.1137039959430694,-0.9772199988365172,0.06734399497509,1.837499976158142,-1.1549999713897705,0.2800000011920929
0.7866109050445097,-0.1178519949316978,-0.973315954208374,0.0717360004782676,0.6650000214576721,-0.8924999833106995,0.4550000131130218
0.8067804154302664,-0.1193159967660904,-0.9713639616966248,0.0724679976701736,-0.5074999928474426,-1.2599999904632568,0.875
0.826949925816023,-0.1185839995741844,-0.9755119681358336,0.0736880004405975,-1.8025000095367432,-1.662500023841858,1.4350000619888306
0.8471194362017797,-0.1176079958677291,-0.9808799624443054,0.0785679966211319,-3.202500104904175,-2.0999999046325684,1.6449999809265137
0.8672889465875363,-0.1161440014839172,-0.9862479567527772,0.0793000012636184,-4.480000019073486,-2.799999952316284,1.627500057220459
0.887458456973293,-0.1212679967284202,-0.9882000088691713,0.0778359994292259,-4.987500190734863,-3.202500104904175,1.5575000047683716
0.9076279673590496,-0.1261480003595352,-0.9916160106658936,0.075883999466896,-5.09250020980835,-3.569999933242798,1.4350000619888306
0.9277974777448063,-0.1271239966154098,-0.9923479557037354,0.0710039958357811,-4.882500171661377,-3.954999923706055,1.1549999713897705
0.9479669881305629,-0.1222440004348754,-0.9962520003318788,0.0631959959864616,-4.690000057220459,-4.462500095367432,0.8224999904632568
0.9681364985163196,-0.1190719977021217,-0.9984479546546936,0.0592919997870922,-4.235000133514404,-5.09250020980835,0.5950000286102295
0.9883060089020762,-0.1193159967660904,-1.000643968582153,0.0588039979338645,-3.674999952316284,-5.355000019073486,0.5074999928474426
1.008475519287833,-0.1146799996495246,-1.0033279657363892,0.0605119988322258,-2.799999952316284,-5.53000020980835,0.5074999928474426
1.0286450296735896,-0.1063839942216873,-1.0057679414749146,0.0636840015649795,-1.5924999713897705,-5.389999866485596,0.5774999856948853
1.0488145400593463,-0.0961359962821006,-1.0043039321899414,0.0651479959487915,-0.3849999904632568,-4.690000057220459,0.5600000023841858
1.068984050445103,-0.0888160020112991,-1.0021079778671265,0.0639280006289482,0.3499999940395355,-3.4649999141693115,0.332500010728836
1.0891535608308596,-0.0917439982295036,-1.0008879899978638,0.0602679997682571,0.8575000166893005,-1.924999952316284,-0.0525000020861625
1.1093230712166162,-0.1007720008492469,-0.9950319528579712,0.0609999969601631,1.6100000143051147,-0.699999988079071,-0.4550000131130218
1.1294925816023729,-0.109555996954441,-0.9864919781684875,0.0641719996929168,1.9774999618530276,-0.1050000041723251,-0.5074999928474426
1.1496620919881295,-0.1124840006232261,-0.9845399856567384,0.0678320005536079,0.8400000333786011,-0.0874999985098838,-0.1050000041723251
1.1698316023738862,-0.0954039990901947,-0.9823439717292786,0.0707599967718124,-1.225000023841858,0.3499999940395355,0.2800000011920929
1.1900011127596428,-0.090279996395111,-0.9972279667854308,0.0683199986815452,-2.117500066757202,1.5924999713897705,0.3849999904632568
1.2101706231453995,-0.0863759964704513,-1.0011320114135742,0.0653920024633407,-1.8725000619888303,3.132499933242798,-0.1574999988079071
1.2303401335311561,-0.0905239954590797,-0.9972279667854308,0.0717360004782676,-1.3300000429153442,5.110000133514404,-0.8400000333786011
1.2505096439169128,-0.0973559990525245,-0.9938119649887084,0.0653920024633407,-0.6299999952316284,6.387499809265137,-1.190000057220459
1.2706791543026694,-0.1093119978904724,-0.9906399846076964,0.0627079978585243,0.0525000020861625,7.227499961853027,-0.9449999928474426
1.290848664688426,-0.1190719977021217,-0.9999119639396667,0.061243999749422,0.5600000023841858,7.525000095367432,-0.4200000166893005
1.3110181750741827,-0.1251720041036605,-1.0072319507598877,0.0605119988322258,1.5750000476837158,7.262499809265137,-0.1400000005960464
1.3311876854599394,-0.1320039927959442,-0.9979599714279176,0.061243999749422,2.9049999713897705,6.474999904632568,-0.3499999940395355
1.351357195845696,-0.1400559991598129,-0.990884006023407,0.0602679997682571,3.325000047683716,5.565000057220459,-0.7175000309944153
1.3715267062314527,-0.1512800008058548,-0.9864919781684875,0.0605119988322258,3.5,4.409999847412109,-0.875
1.3916962166172093,-0.1581119894981384,-0.9803919792175292,0.0609999969601631,3.4124999046325684,2.8350000381469727,-0.962499976158142
1.411865727002966,-0.152988001704216,-0.9730719923973083,0.0651479959487915,2.870000123977661,0.7350000143051147,-0.9100000262260436
1.4320352373887226,-0.1495719999074936,-0.977463960647583,0.065880000591278,1.0850000381469729,-1.1200000047683716,-0.4724999964237213
1.4522047477744793,-0.1398119926452636,-0.9877119660377502,0.0595359988510608,-0.3149999976158142,-2.992500066757202,-0.0874999985098838
1.472374258160236,-0.1193159967660904,-0.9928359985351562,0.057583998888731,-0.5074999928474426,-3.797500133514404,0.1749999970197677
1.4925437685459926,-0.0929640009999275,-0.990884006023407,0.0570959970355033,0.262499988079071,-3.1675000190734863,0.332500010728836
1.5127132789317492,-0.0719799995422363,-0.9945439696311952,0.0539239980280399,0.8924999833106995,-1.225000023841858,0.4025000035762787
1.5328827893175059,-0.0585599988698959,-0.9977160096168518,0.0497759990394115,1.5750000476837158,1.3300000429153442,0.2450000047683715
1.5530522997032625,-0.0651479959487915,-1.0008879899978638,0.0453839972615242,1.715000033378601,4.059999942779541,-0.0175000000745058
1.5732218100890192,-0.0802759975194931,-1.0106480121612549,0.046604000031948,1.8200000524520876,6.369999885559082,-0.5600000023841858
1.5933913204747758,-0.0810080021619796,-1.0062559843063354,0.0517279990017414,2.852499961853028,7.699999809265137,-1.4874999523162842
1.6135608308605325,-0.010491999797523,-0.985759973526001,0.0448959991335868,2.7300000190734863,9.11750030517578,-2.992500066757202
1.6337303412462891,0.0771040022373199,-1.0057679414749146,-0.0065879998728632,2.380000114440918,19.6875,-5.792500019073486
1.6538998516320458,0.1317600011825561,-1.0245559215545654,0.0375759974122047,2.502500057220459,33.14500045776367,-9.59000015258789
1.6740693620178024,0.1693359911441803,-1.099463939666748,0.0178119987249374,-1.0674999952316284,41.09000015258789,-15.487500190734863
1.694238872403559,0.0832040011882782,-1.0831159353256226,-0.0168359987437725,0.0350000001490116,49.997501373291016,-23.729999542236328
1.7144083827893157,-0.1154119968414306,-1.077015995979309,0.0234239995479583,2.309999942779541,52.5,-28.84000015258789
1.7345778931750724,-0.2635200023651123,-0.9884439706802368,0.0844239965081214,12.302499771118164,29.1200008392334,-24.850000381469727
1.754747403560829,-0.2535159885883331,-0.9850279688835144,0.1246839985251426,9.957500457763672,14.052499771118164,-18.165000915527344
1.7749169139465857,-0.1998360008001327,-0.9911279678344728,0.1305399984121322,4.952499866485596,-2.450000047683716,-12.1274995803833
1.7950864243323423,-0.124439999461174,-0.97599995136261,0.1241960003972053,0.3499999940395355,-15.855000495910645,-7.892499923706055
1.815255934718099,-0.076615996658802,-0.9608719944953918,0.1178519949316978,-2.3975000381469727,-23.92250061035156,-6.684999942779541
1.8354254451038556,-0.0527039989829063,-0.9569680094718932,0.1334680020809173,-2.257499933242798,-26.232500076293945,-8.505000114440918
1.8555949554896123,-0.0302559994161129,-0.9550159573554992,0.1466439962387085,-1.5049999952316284,-25.14750099182129,-11.550000190734863
1.875764465875369,-0.0053679998964071,-0.9584319591522216,0.1424959897994995,-4.497499942779541,-23.309999465942383,-14.524999618530272
1.8959339762611256,0.0178119987249374,-0.9567239880561828,0.0973559990525245,-8.015000343322754,-20.229999542236328,-15.364999771118164
1.9161034866468822,-0.009515999816358,-0.9372040033340454,0.0485559999942779,-10.289999961853027,-14.244999885559082,-13.300000190734863
1.9362729970326389,-0.0422119982540607,-0.9706319570541382,0.0531919971108436,-14.262499809265137,-8.137499809265137,-10.605000495910645
1.9564425074183955,-0.0390399992465972,-0.9557479619979858,0.0485559999942779,-13.579999923706056,-5.740000247955322,-9.22249984741211
1.9766120178041522,-0.0324519984424114,-0.9293959736824036,0.033671997487545,-14.1225004196167,-2.694999933242798,-7.542500019073486
1.9967815281899088,-0.013663999736309,-0.9454999566078186,0.028303999453783,-17.0625,1.1024999618530271,-6.019999980926514
2.0169510385756655,0.0024399999529123,-0.9762439727783204,0.0265959985554218,-18.96999931335449,4.900000095367432,-6.019999980926514
2.0371205489614224,0.0185439996421337,-0.9835639595985411,0.0302559994161129,-17.797500610351562,8.662500381469727,-5.880000114440918
2.0572900593471792,0.0312319993972778,-0.9750239849090576,0.0688079968094825,-15.557499885559082,11.550000190734863,-5.389999866485596
2.077459569732936,0.0146399997174739,-0.9840520024299622,0.0834480002522468,-15.592499732971191,11.30500030517578,-4.077499866485596
2.097629080118693,-0.0204959996044635,-0.9877119660377502,0.0883279964327812,-16.170000076293945,8.102499961853027,-3.5
2.11779859050445,-0.047580000013113,-0.9999119639396667,0.0980879962444305,-16.309999465942383,2.9749999046325684,-2.9749999046325684
2.1379681008902067,-0.0505079999566078,-1.0208959579467771,0.1015039980411529,-14.927499771118164,-4.130000114440918,-1.5750000476837158
2.1581376112759636,-0.0285479985177516,-1.020651936531067,0.0900359973311424,-12.61750030517578,-10.517499923706056,0.7175000309944153
2.1783071216617205,0.0156159996986389,-1.0440759658813477,0.0875959992408752,-12.582500457763672,-14.647500038146973,3.0799999237060547
2.1984766320474773,0.0651479959487915,-1.0496879816055298,0.0922319963574409,-10.56999969482422,-16.502500534057617,4.21750020980835
2.218646142433234,0.0895479992032051,-1.0287039279937744,0.0922319963574409,-7.105000019073486,-15.907500267028809,4.164999961853027
2.238815652818991,0.095160000026226,-1.0062559843063354,0.1097999960184097,-4.760000228881836,-14.279999732971191,2.625
2.258985163204748,0.0653920024633407,-0.9874680042266846,0.1224879994988441,-3.1675000190734863,-12.932499885559082,1.4350000619888306
2.279154673590505,0.0275719985365867,-0.9767319560050964,0.1368840038776397,-1.2424999475479126,-12.949999809265137,1.5575000047683716
2.2993241839762617,0.023667998611927,-0.9691680073738098,0.1498159915208816,0.9100000262260436,-15.172499656677246,2.712500095367432
2.3194936943620186,0.0749079957604408,-0.9176839590072632,0.0727119967341423,2.9049999713897705,-18.375,5.722499847412109
2.3396632047477754,-0.1024799942970275,-1.2861239910125732,-0.2559559941291809,-24.482500076293945,3.307500123977661,6.84250020980835
2.3598327151335323,-0.013663999736309,-1.32150399684906,0.1451800018548965,-6.982500076293945,5.547500133514404,-11.917500495910645
2.380002225519289,-0.0548999980092048,-1.087019920349121,0.1566479951143264,5.039999961853027,-7.227499961853027,-20.42250061035156
2.400171735905046,0.0539239980280399,-0.9481839537620544,-0.0790559947490692,3.4124999046325684,-22.627500534057617,-17.167499542236328
2.420341246290803,-0.1122400015592575,-0.9503799676895142,-0.1568920016288757,-4.602499961853027,-5.652500152587891,-11.112500190734863
2.44051075667656,-0.1910519897937774,-1.0418800115585327,-0.0344039984047412,-7.332499980926514,-6.054999828338623,-10.8149995803833
2.4606802670623167,-0.1790959984064102,-1.0213840007781982,-0.0002439999952912,5.84499979019165,-18.112499237060547,-14.03499984741211
2.4808497774480736,-0.0817399993538856,-0.9103639721870422,-0.0358680002391338,22.575000762939453,-27.70249938964844,-15.71500015258789
2.5010192878338304,-0.0954039990901947,-0.8159359693527222,-0.0146399997174739,25.165000915527344,-24.9375,-14.630000114440918
2.5211887982195873,-0.0783239975571632,-0.9057279825210572,0.0036599999293684,14.927499771118164,-24.727500915527344,-11.182499885559082
2.541358308605344,0.0297679994255304,-1.0182119607925415,-0.0507519990205764,9.3100004196167,-19.950000762939453,-4.707499980926514
2.561527818991101,0.1180959939956665,-1.0643279552459717,-0.0844239965081214,9.1875,-10.1850004196167,3.0274999141693115
2.581697329376858,0.1622599959373474,-1.0118680000305176,-0.0173240005970001,12.355000495910645,-3.3424999713897705,6.597499847412109
2.601866839762615,0.0458719991147518,-0.9972279667854308,0.0641719996929168,14.227499961853027,8.417500495910645,8.977499961853027
2.6220363501483717,-0.0348920002579689,-0.998691976070404,0.0856439992785453,20.3700008392334,4.934999942779541,12.932499885559082
2.6422058605341285,-0.0927200019359588,-0.9179279804229736,0.0509959980845451,28.087499618530277,3.7799999713897705,17.832500457763672
2.6623753709198854,-0.1444479972124099,-0.8505839705467224,-0.0356239974498748,22.9424991607666,6.632500171661377,24.63999938964844
2.6825448813056423,-0.1412760019302368,-0.8671759963035583,-0.1178519949316978,1.1024999618530271,8.295000076293945,32.619998931884766
2.702714391691399,-0.0600240007042884,-1.0633519887924194,-0.1229759976267814,-24.0625,11.34000015258789,33.6875
2.722883902077156,-0.0453839972615242,-1.2243919372558594,-0.0195199996232986,-29.627500534057617,16.15250015258789,27.3700008392334
2.743053412462913,-0.1178519949316978,-1.2875880002975464,0.046604000031948,-21.0,15.505000114440918,20.125
2.7632229228486698,-0.1778759956359863,-1.1936479806900024,0.0502640008926391,0.8924999833106995,8.27750015258789,17.482500076293945
2.7833924332344266,-0.2322880029678344,-1.0367560386657717,0.0492879971861839,18.655000686645508,2.5899999141693115,19.092500686645508
2.8035619436201835,-0.1956879943609237,-0.9567239880561828,0.0734440013766288,24.63999938964844,-6.072500228881836,21.59499931335449
2.8237314540059404,-0.1527439951896667,-0.907435953617096,0.0739319995045661,26.092500686645508,-9.239999771118164,23.20499992370605
2.8439009643916973,-0.066611997783184,-0.8293559551239014,0.0861319974064827,24.97249984741211,-11.462499618530272,21.50749969482422
2.864070474777454,-0.0180559996515512,-0.8152039647102356,0.0880839973688125,15.260000228881836,-7.525000095367432,18.427499771118164
2.884239985163211,0.002195999957621,-0.8549759984016418,0.0895479992032051,4.182499885559082,-3.3600001335144043,14.244999885559082
2.904409495548968,-0.0119559997692704,-0.8986519575119019,0.08661999553442,-4.042500019073486,2.275000095367432,10.727499961853027
2.9245790059347248,-0.0395279973745346,-0.9647759795188904,0.0683199986815452,-10.202500343322754,6.527500152587891,7.769999980926514
2.9447485163204816,-0.1285879909992218,-1.000643968582153,0.0351359993219375,-5.215000152587891,10.640000343322754,3.0625
2.9649180267062385,-0.1520119905471801,-0.9889319539070128,0.0619760006666183,-2.240000009536743,9.869999885559082,1.9774999618530276
2.9850875370919954,-0.1290760040283203,-1.00381600856781,0.0805199965834617,-2.6424999237060547,7.822500228881836,2.134999990463257
3.0052570474777522,-0.1129719987511634,-1.02211594581604,0.0934519991278648,-3.377500057220459,8.225000381469727,2.782500028610229
3.025426557863509,-0.0678320005536079,-1.0043039321899414,0.0849120020866394,-3.7100000381469727,7.699999809265137,3.3600001335144043
3.045596068249266,-0.0678320005536079,-0.98990797996521,0.0841799974441528,-4.287499904632568,11.270000457763672,3.954999923706055
3.065765578635023,-0.1129719987511634,-0.9796599745750428,0.0439199991524219,-2.502500057220459,14.734999656677246,3.202500104904175
3.0859350890207797,-0.1190719977021217,-0.9508680105209352,0.0907679945230484,1.5049999952316284,16.729999542236328,2.414999961853028
3.1061045994065366,-0.13298000395298,-0.9708759784698486,0.1259039938449859,0.0874999985098838,20.26499938964844,3.4825000762939453
3.1262741097922935,-0.1420079916715622,-0.9647759795188904,0.1349319964647293,-0.9275000095367432,23.677499771118164,4.269999980926514
3.1464436201780503,-0.1083360016345977,-0.9269559979438782,0.1241960003972053,-2.414999961853028,26.302499771118164,4.882500171661377
3.166613130563807,-0.0692960023880004,-0.9564799666404724,0.1527439951896667,-6.597499847412109,30.030000686645508,3.6575000286102295
3.186782640949564,-0.0222040005028247,-0.97843998670578,0.1764120012521743,-6.912499904632568,32.47999954223633,0.875
3.206952151335321,-0.0253759995102882,-0.9630680084228516,0.1747040003538131,-4.637499809265137,37.6775016784668,-1.784999966621399
3.227121661721078,-0.061243999749422,-0.9350079894065856,0.1456679999828338,-3.587500095367432,40.54750061035156,-4.199999809265137
3.2472911721068347,-0.1083360016345977,-0.9506239891052246,0.1341999918222427,-4.724999904632568,43.3650016784668,-6.545000076293945
3.2674606824925916,-0.2198439985513687,-0.9889319539070128,0.0832040011882782,-6.702499866485596,46.98749923706055,-8.4350004196167
3.2876301928783485,-0.2708399891853332,-1.1865719556808472,-0.0983319953083992,-15.050000190734863,49.90999984741211,-6.527500152587891
3.3077997032641053,-0.2198439985513687,-1.4137359857559204,-0.1178519949316978,-5.547500133514404,50.8025016784668,-0.9275000095367432
3.327969213649862,-0.1376159936189651,-1.288807988166809,-0.0614879988133907,20.299999237060547,40.005001068115234,5.179999828338623
3.348138724035619,-0.099551998078823,-1.0965359210968018,-0.0832040011882782,33.459999084472656,31.63999938964844,11.392499923706056
3.368308234421376,-0.0685639977455139,-0.9652639627456664,-0.1027240008115768,37.397499084472656,33.915000915527344,15.329999923706056
3.388477744807133,-0.0741759985685348,-0.7700639963150024,-0.1507920026779174,37.53749847412109,38.90250015258789,15.225000381469728
3.4086472551928897,-0.0793000012636184,-0.7183359861373901,-0.1322479993104934,18.00749969482422,41.43999862670898,16.69499969482422
3.4288167655786466,-0.2032520025968551,-0.8923079967498779,-0.1422519981861114,-11.130000114440918,43.540000915527344,14.980000495910645
3.4489862759644034,-0.2518079876899719,-1.044808030128479,-0.1266359984874725,-22.487499237060547,36.522499084472656,6.002500057220459
3.4691557863501603,-0.2781600058078766,-1.048467993736267,-0.1163880005478859,-18.655000686645508,29.295000076293945,-1.837499976158142
3.489325296735917,-0.2359479963779449,-1.0091840028762815,-0.1168759986758232,-14.699999809265137,21.89249992370605,-5.25
3.509494807121674,-0.1822679936885833,-0.9677039980888368,-0.1022359952330589,-11.760000228881836,15.487500190734863,-6.615000247955322
3.529664317507431,-0.1312720030546188,-0.9528200030326844,-0.0883279964327812,-12.774999618530272,8.137499809265137,-7.980000019073486
3.549833827893188,-0.0080519998446106,-1.0689640045166016,-0.0971119999885559,-17.325000762939453,-0.4724999964237213,-13.720000267028809
3.5700033382789447,-0.0197639986872673,-1.0367560386657717,-0.052947998046875,-9.572500228881836,4.164999961853027,-17.639999389648438
3.5901728486647015,-0.0102479998022317,-1.02211594581604,-0.0214719995856285,-7.192500114440918,4.445000171661377,-20.57999992370605
3.6103423590504584,-0.0229359995573759,-1.0243120193481443,-0.0214719995856285,-4.252500057220459,4.112500190734863,-23.65999984741211
3.6305118694362153,-0.0265959985554218,-1.004547953605652,-0.0129319997504353,0.2275000065565109,4.53249979019165,-23.8700008392334
3.650681379821972,-0.0356239974498748,-1.0057679414749146,-0.0012199999764561,0.9100000262260436,3.255000114440918,-22.5049991607666
3.670850890207729,-0.0509959980845451,-0.9689239859580994,0.0043919999152421,3.2725000381469727,-0.3149999976158142,-20.3700008392334
3.691020400593486,-0.0607559978961944,-0.936959981918335,0.0134199997410178,0.4900000095367431,-5.53000020980835,-16.712499618530273
3.711189910979243,-0.0936959981918335,-0.9989359974861144,0.061243999749422,-6.037499904632568,-8.050000190734863,-12.442500114440918
3.7313594213649997,-0.1229759976267814,-1.0440759658813477,0.066611997783184,-5.494999885559082,-14.980000495910645,-11.077500343322754
3.7515289317507565,-0.0817399993538856,-1.0289479494094849,0.0773480013012886,-2.257499933242798,-25.637500762939453,-11.427499771118164
3.7716984421365134,-0.0478239990770816,-1.012112021446228,0.052216000854969,-0.332500010728836,-31.79750061035156,-12.442500114440918
3.7918679525222703,-0.0585599988698959,-0.9974719882011414,-0.002195999957621,2.694999933242798,-35.787498474121094,-14.315000534057615
3.812037462908027,-0.0639280006289482,-1.000643968582153,-0.0129319997504353,7.787499904632568,-37.02999877929688,-15.067500114440918
3.832206973293784,-0.0468479990959167,-0.957211971282959,-0.0253759995102882,15.942500114440918,-36.102500915527344,-13.755000114440918
3.852376483679541,-0.0041479999199509,-0.9164639711380004,-0.0363559983670711,18.042499542236328,-34.52750015258789,-8.767499923706055
3.8725459940652978,0.0497759990394115,-0.9501360058784484,-0.0458719991147518,12.407500267028809,-29.90749931335449,-3.569999933242798
3.8927155044510546,0.0434319972991943,-0.96453195810318,-0.0544119998812675,8.050000190734863,-22.417499542236328,-0.9800000190734864
3.9128850148368115,0.0644159987568855,-0.9620919823646544,-0.0434319972991943,4.322500228881836,-16.485000610351562,-0.0525000020861625
3.9330545252225684,0.1078479960560798,-0.990395963191986,-0.0644159987568855,-0.2450000047683715,-9.012499809265137,1.2074999809265137
3.9532240356083252,0.0814960002899169,-1.0706720352172852,-0.0807639956474304,-4.65500020980835,-0.6650000214576721,0.0175000000745058
3.973393545994082,0.0358680002391338,-1.1289880275726318,-0.0668559968471527,-0.6825000047683716,1.5575000047683716,-3.447499990463257
3.993563056379839,-0.041967999190092,-1.1433839797973633,-0.0592919997870922,13.19499969482422,1.225000023841858,-5.775000095367432
4.013732566765595,-0.1046760007739067,-1.0589599609375,-0.047335997223854,33.599998474121094,-1.2599999904632568,-6.054999828338623
4.033902077151352,-0.1581119894981384,-0.9320799708366394,-0.0275719985365867,43.470001220703125,-5.022500038146973,-2.380000114440918
4.054071587537109,-0.1747040003538131,-0.87254399061203,-0.0436760000884532,35.77000045776367,-10.640000343322754,3.6050000190734863
4.074241097922866,-0.1461559981107711,-0.8500959873199463,-0.0912560001015663,22.9950008392334,-14.105000495910645,9.520000457763672
4.094410608308623,-0.1217559948563575,-0.9006040096282959,-0.0807639956474304,7.175000190734863,-14.630000114440918,12.600000381469728
4.11458011869438,-0.1241960003972053,-0.9945439696311952,-0.0468479990959167,-2.870000123977661,-16.677499771118164,11.567500114440918
4.134749629080137,-0.1034559980034828,-1.0540800094604492,-0.046604000031948,-5.005000114440918,-21.03499984741211,9.520000457763672
4.1549191394658935,-0.1210239976644516,-0.981611967086792,-0.0573399998247623,0.5249999761581421,-23.76499938964844,6.352499961853027
4.17508864985165,-0.1261480003595352,-0.9821000099182128,-0.0241560004651546,0.3149999976158142,-21.6299991607666,7.087500095367432
4.195258160237407,-0.1293199956417083,-0.9923479557037354,0.0041479999199509,0.7699999809265137,-19.82749938964844,8.050000190734863
4.215427670623164,-0.1107759997248649,-0.9852719902992249,0.0187879987061023,-0.612500011920929,-18.934999465942383,7.192500114440918
4.235597181008921,-0.0700279995799064,-0.9628239870071412,0.0392839983105659,-5.144999980926514,-17.0625,6.28249979019165
4.255766691394678,-0.0368440002202987,-0.9420839548110962,0.0556319989264011,-11.899999618530272,-13.6850004196167,5.84499979019165
4.275936201780435,-0.037331998348236,-0.9218319654464722,0.0461159981787204,-19.18000030517578,-9.170000076293944,4.550000190734863
4.296105712166192,-0.0541680008172988,-0.9718520045280457,0.0480679981410503,-30.20499992370605,-5.460000038146973,3.3949999809265137
4.3162752225519485,-0.0334279984235763,-1.0814080238342283,0.0478239990770816,-30.11750030517578,-2.380000114440918,5.215000152587891
4.336444732937705,-0.0919879972934722,-1.0809199810028076,0.0078079998493194,-19.862499237060547,0.3675000071525574,6.720000267028809
4.356614243323462,-0.1039439961314201,-0.9916160106658936,0.0073199998587369,-11.130000114440918,1.5049999952316284,6.894999980926514
4.376783753709219,-0.1400559991598129,-0.9520879983901978,0.0039039999246597,-8.522500038146973,1.9075000286102293,4.829999923706055
4.396953264094976,-0.158843994140625,-0.9425719976425172,-0.003171999938786,-8.71500015258789,-0.5249999761581421,2.1700000762939453
4.417122774480733,-0.2132560014724731,-0.944279968738556,-0.0331839993596077,-9.520000457763672,-1.3125,-1.3650000095367432
4.43729228486649,-0.2020319998264312,-0.961359977722168,-0.0048799999058246,-12.057499885559082,-4.53249979019165,-5.074999809265137
4.457461795252247,-0.0627079978585243,-1.087507963180542,-0.0319640003144741,-18.375,-7.210000038146973,-3.990000009536743
4.4776313056380035,0.0243999995291233,-1.097999930381775,-0.0553879998624324,-12.6875,-2.1875,-6.125
4.49780081602376,0.0573399998247623,-1.0438319444656372,-0.0661239996552467,-8.662500381469727,1.924999952316284,-12.984999656677246
4.517970326409517,0.0121999997645616,-1.0177240371704102,-0.0739319995045661,-9.835000038146973,6.440000057220459,-18.07749938964844
4.538139836795274,-0.0322079993784427,-0.9984479546546936,-0.0634399950504303,-13.667500495910645,9.135000228881836,-20.57999992370605
4.558309347181031,-0.046604000031948,-0.966484010219574,-0.0505079999566078,-16.852500915527344,10.237500190734863,-21.315000534057617
4.578478857566788,-0.1066280007362365,-0.961359977722168,-0.0246439985930919,-20.42250061035156,11.375,-20.649999618530277
4.598648367952545,-0.1285879909992218,-0.9764879941940308,0.0051239999011158,-19.809999465942383,4.53249979019165,-19.477500915527344
4.618817878338302,-0.0895479992032051,-0.9335439801216124,-0.0190319996327161,-14.262499809265137,-0.612500011920929,-17.0625
4.6389873887240585,-0.0588039979338645,-0.8740079998970032,-0.0497759990394115,-9.642499923706056,-2.1524999141693115,-11.987500190734863
4.659156899109815,-0.0441639982163906,-0.8539999723434448,-0.0590479969978332,-6.877500057220459,-3.325000047683716,-5.84499979019165
4.679326409495572,-0.0568519979715347,-0.8671759963035583,-0.0839359983801841,-5.355000019073486,-0.7699999809265137,3.237499952316284
4.699495919881329,-0.0517279990017414,-0.944767951965332,-0.0836919993162155,-5.284999847412109,1.5575000047683716,14.980000495910645
4.719665430267086,-0.1376159936189651,-1.0655479431152344,-0.0883279964327812,-9.432499885559082,4.304999828338623,25.602500915527344
4.739834940652843,-0.1571359932422638,-1.2775839567184448,-0.1000399962067604,-21.03499984741211,-1.2949999570846558,24.237499237060547
4.7600044510386,0.1105320006608963,-1.1463119983673096,-0.0975999981164932,8.522500038146973,3.132499933242798,3.2725000381469727
4.780173961424357,0.1017479971051216,-0.9764879941940308,-0.0732000023126602,14.875,15.4350004196167,3.4825000762939453
4.8003434718101134,0.0636840015649795,-0.9374479651451112,-0.05197199806571,8.102499961853027,18.725000381469727,2.922499895095825
4.82051298219587,0.0207399986684322,-0.9167079925537108,-0.0402599982917308,4.934999942779541,21.770000457763672,1.2949999570846558
4.840682492581627,-0.0261080004274845,-0.932811975479126,-0.0112239997833967,3.009999990463257,22.90749931335449,-0.7350000143051147
4.860852002967384,-0.05197199806571,-0.96453195810318,0.0161039996892213,3.815000057220459,20.229999542236328,-2.5374999046325684
4.881021513353141,-0.0534359999001026,-0.9611159563064576,0.0080519998446106,6.912499904632568,15.522500038146973,-2.870000123977661
4.901191023738898,-0.0875959992408752,-0.9603840112686156,-0.0268399994820356,6.755000114440918,13.037500381469728,-1.9075000286102293
4.921360534124655,-0.095160000026226,-0.9757559895515442,-0.0295239984989166,4.619999885559082,9.765000343322754,-0.0700000002980232
4.941530044510412,-0.071492001414299,-1.017967939376831,-0.0402599982917308,1.2074999809265137,7.402500152587891,1.8550000190734863
4.961699554896168,-0.0434319972991943,-1.050663948059082,-0.0463600009679794,-1.0499999523162842,6.072500228881836,2.309999942779541
4.981869065281925,-0.0246439985930919,-1.0413919687271118,-0.0600240007042884,-0.9800000190734864,5.005000114440918,0.7524999976158142
5.002038575667682,-0.0358680002391338,-1.0069879293441772,-0.0629519969224929,0.4550000131130218,6.125,-0.962499976158142
5.022208086053439,-0.0400159992277622,-0.98990797996521,-0.0592919997870922,2.432500123977661,6.789999961853027,-2.134999990463257
5.042377596439196,-0.0634399950504303,-0.9821000099182128,-0.0649039968848228,4.287499904632568,7.699999809265137,-2.712500095367432
5.062547106824953,-0.0739319995045661,-0.9755119681358336,-0.0900359973311424,5.355000019073486,7.332499980926514,-2.6424999237060547
5.08271661721071,-0.0478239990770816,-0.972827970981598,-0.0973559990525245,4.777500152587891,6.072500228881836,-2.257499933242798
5.1028861275964665,-0.0161039996892213,-0.981123983860016,-0.0983319953083992,2.870000123977661,5.179999828338623,-1.8025000095367432
5.123055637982223,-0.0146399997174739,-0.9960079789161682,-0.095160000026226,0.9975000023841858,5.022500038146973,-1.225000023841858
5.14322514836798,-0.0322079993784427,-1.0035719871520996,-0.0783239975571632,-0.1050000041723251,5.110000133514404,-0.4900000095367431
5.163394658753737,-0.0536799989640712,-1.0062559843063354,-0.0646599978208541,-0.3499999940395355,5.144999980926514,0.3149999976158142
5.183564169139494,-0.0763719975948333,-1.0111359357833862,-0.0505079999566078,0.5074999928474426,4.795000076293945,0.9800000190734864
5.203733679525251,-0.0819839984178543,-1.016260027885437,-0.0507519990205764,1.4700000286102295,3.132499933242798,1.2424999475479126
5.223903189911008,-0.0763719975948333,-1.010892033576965,-0.0585599988698959,2.345000028610229,1.1200000047683716,1.1375000476837158
5.244072700296765,-0.0683199986815452,-1.0028399229049685,-0.0639280006289482,3.237499952316284,-0.262499988079071,1.1024999618530271
5.2642422106825215,-0.0585599988698959,-0.9864919781684875,-0.0678320005536079,4.252500057220459,-1.3650000095367432,1.4350000619888306
5.284411721068278,-0.0458719991147518,-0.9835639595985411,-0.0780799984931945,3.745000123977661,-1.4524999856948853,1.924999952316284
5.304581231454035,-0.0424560010433197,-0.9852719902992249,-0.0741759985685348,2.747499942779541,-0.7699999809265137,2.2925000190734863
5.324750741839792,-0.0395279973745346,-0.9874680042266846,-0.065880000591278,1.3650000095367432,-0.1924999952316284,2.2925000190734863
5.344920252225549,-0.037331998348236,-0.981123983860016,-0.0539239980280399,0.1050000041723251,0.1749999970197677,1.8725000619888303
5.365089762611306,-0.0548999980092048,-0.9835639595985411,-0.0405040010809898,-1.9774999618530276,0.962499976158142,0.9275000095367432
5.385259272997063,-0.061243999749422,-0.9718520045280457,-0.0390399992465972,-2.012500047683716,0.9975000023841858,0.612500011920929
5.40542878338282,-0.0683199986815452,-0.9882000088691713,-0.0417240001261234,-4.09499979019165,0.7350000143051147,0.7350000143051147
5.4255982937685765,-0.0800319984555244,-0.9969840049743652,-0.0451399981975555,-4.550000190734863,-0.1749999970197677,1.0674999952316284
5.445767804154333,-0.0871080011129379,-1.0118680000305176,-0.0619760006666183,-4.235000133514404,-1.5924999713897705,1.662500023841858
5.46593731454009,-0.0949160009622573,-1.0084519386291504,-0.0683199986815452,-2.450000047683716,-2.327500104904175,2.309999942779541
5.486106824925847,-0.0875959992408752,-1.0118680000305176,-0.0712479948997497,-1.784999966621399,-3.6575000286102295,2.712500095367432
5.506276335311604,-0.075883999466896,-1.0125999450683594,-0.0653920024633407,-1.190000057220459,-4.252500057220459,2.502500057220459
5.526445845697361,-0.061243999749422,-1.0091840028762815,-0.0636840015649795,-0.7875000238418579,-4.409999847412109,2.0824999809265137
5.546615356083118,-0.0627079978585243,-1.007964015007019,-0.046604000031948,-0.3849999904632568,-2.7300000190734863,1.5575000047683716
5.566784866468875,-0.061243999749422,-1.0043039321899414,-0.0463600009679794,0.9449999928474426,-3.009999990463257,1.1375000476837158
5.5869543768546315,-0.0624639987945556,-0.993079960346222,-0.0441639982163906,2.1524999141693115,-3.2725000381469727,0.5774999856948853
5.607123887240388,-0.0639280006289482,-0.993079960346222,-0.0407480001449584,2.2049999237060547,-2.992500066757202,0.1050000041723251
5.627293397626145,-0.0617319978773593,-0.985759973526001,-0.0392839983105659,2.747499942779541,-2.782500028610229,-0.1050000041723251
5.647462908011902,-0.0548999980092048,-0.9818559885025024,-0.0400159992277622,2.0824999809265137,-2.6075000762939453,-0.0175000000745058
5.667632418397659,-0.052947998046875,-0.9745360016822816,-0.0378200002014637,0.8575000166893005,-2.0999999046325684,0.0350000001490116
5.687801928783416,-0.052947998046875,-0.9799039959907532,-0.0368440002202987,-0.9275000095367432,-1.7675000429153442,0.1749999970197677
5.707971439169173,-0.056607998907566,-0.9813680052757264,-0.0402599982917308,-2.2225000858306885,-2.0999999046325684,0.1225000023841857
5.72814094955493,-0.0588039979338645,-0.9786840081214904,-0.0436760000884532,-3.307500123977661,-2.0999999046325684,0.0874999985098838
5.7483104599406865,-0.0600240007042884,-0.981611967086792,-0.0534359999001026,-4.392499923706055,-1.6974999904632568,0.262499988079071
5.768479970326443,-0.0624639987945556,-0.9882000088691713,-0.0551439970731735,-5.215000152587891,-1.3125,0.5074999928474426
5.7886494807122,-0.062219999730587,-0.9886879920959472,-0.0634399950504303,-5.862500190734863,-0.9975000023841858,0.6474999785423279
5.808818991097957,-0.0597799979150295,-0.9972279667854308,-0.0678320005536079,-6.5625,-0.6825000047683716,0.5774999856948853
5.828988501483714,-0.0602679997682571,-1.0084519386291504,-0.0641719996929168,-6.40500020980835,-0.0175000000745058,0.4200000166893005
5.849158011869471,-0.0585599988698959,-1.0067440271377563,-0.0597799979150295,-5.215000152587891,0.2975000143051147,0.332500010728836
5.869327522255228,-0.0595359988510608,-0.9962520003318788,-0.0495319999754428,-4.147500038146973,0.6650000214576721,0.5600000023841858
5.889497032640985,-0.0624639987945556,-0.9850279688835144,-0.0546559989452362,-4.09499979019165,1.4700000286102295,0.6299999952316284
5.909666543026741,-0.0597799979150295,-0.9864919781684875,-0.0551439970731735,-4.882500171661377,1.9424999952316284,0.4200000166893005
5.929836053412498,-0.0544119998812675,-0.9886879920959472,-0.0634399950504303,-5.512499809265137,2.047499895095825,0.1924999952316284
5.950005563798255,-0.062219999730587,-0.995519995689392,-0.0649039968848228,-6.317500114440918,2.6424999237060547,0.3849999904632568
5.970175074184012,-0.0832040011882782,-1.0052800178527832,-0.0795440003275871,-6.440000057220459,0.699999988079071,0.612500011920929
5.990344584569769,-0.0875959992408752,-1.009671926498413,-0.095160000026226,-5.162499904632568,-0.962499976158142,0.4900000095367431
6.010514094955526,-0.0773480013012886,-1.0174800157546997,-0.1005280017852783,-3.2725000381469727,-1.924999952316284,0.1400000005960464
6.030683605341283,-0.0636840015649795,-1.017967939376831,-0.0936959981918335,-1.225000023841858,-1.9774999618530276,-0.332500010728836
6.0508531157270395,-0.052216000854969,-1.0025960206985474,-0.0912560001015663,0.2800000011920929,-1.8725000619888303,-0.7350000143051147
6.071022626112796,-0.0451399981975555,-0.9913719892501832,-0.0954039990901947,0.8050000071525574,-0.7699999809265137,-0.962499976158142
6.091192136498553,-0.0400159992277622,-0.9874680042266846,-0.0990639999508857,0.7875000238418579,1.3300000429153442,-0.8224999904632568
6.11136164688431,-0.0400159992277622,-0.9877119660377502,-0.0971119999885559,0.3149999976158142,3.430000066757202,-0.5600000023841858
6.131531157270067,-0.0456280000507831,-0.9850279688835144,-0.1012599989771843,-0.2100000083446502,5.057499885559082,-0.4900000095367431
6.151700667655824,-0.0688079968094825,-0.994055986404419,-0.1066280007362365,-0.8050000071525574,6.684999942779541,-0.4724999964237213
6.171870178041581,-0.0668559968471527,-0.9943000078201294,-0.095891997218132,0.1924999952316284,6.457499980926514,-0.5425000190734863
6.192039688427338,-0.0793000012636184,-0.998691976070404,-0.0961359962821006,0.699999988079071,5.880000114440918,-0.4375
6.2122091988130945,-0.0814960002899169,-0.9950319528579712,-0.0990639999508857,1.347499966621399,4.199999809265137,-0.4200000166893005
6.232378709198851,-0.090279996395111,-0.9925919771194458,-0.1071159988641738,1.2074999809265137,2.432500123977661,-0.5950000286102295
6.252548219584608,-0.0817399993538856,-0.9952759742736816,-0.1022359952330589,1.1024999618530271,0.262499988079071,-1.1024999618530271
6.272717729970365,-0.0675880014896392,-0.9874680042266846,-0.0946719944477081,1.6974999904632568,-1.1024999618530271,-1.75
6.292887240356122,-0.0629519969224929,-0.9901520013809204,-0.0912560001015663,0.8575000166893005,-1.9600000381469729,-1.9774999618530276
6.313056750741879,-0.0588039979338645,-0.9957639575004578,-0.085156001150608,0.7875000238418579,-2.0824999809265137,-1.837499976158142
6.333226261127636,-0.0553879998624324,-0.990395963191986,-0.0768599957227706,1.3300000429153442,-1.6974999904632568,-1.5399999618530271
6.353395771513393,-0.0509959980845451,-0.9864919781684875,-0.0670999959111213,1.1725000143051147,-1.2424999475479126,-1.2074999809265137
6.3735652818991495,-0.0400159992277622,-0.9840520024299622,-0.0712479948997497,0.612500011920929,-0.5600000023841858,-0.7175000309944153
6.393734792284906,-0.0358680002391338,-0.9911279678344728,-0.0775920003652572,-0.699999988079071,1.0325000286102295,-0.4724999964237213
6.413904302670663,-0.0414799973368644,-0.9957639575004578,-0.0753960013389587,-1.5750000476837158,2.799999952316284,-0.5774999856948853
6.43407381305642,-0.0541680008172988,-0.9979599714279176,-0.0795440003275871,-1.9600000381469729,4.409999847412109,-1.0149999856948853
6.454243323442177,-0.0683199986815452,-0.9916160106658936,-0.0836919993162155,-1.1375000476837158,5.179999828338623,-1.2599999904632568
6.474412833827934,-0.0880839973688125,-0.9877119660377502,-0.0822279974818229,-0.612500011920929,5.232500076293945,-0.5600000023841858
6.494582344213691,-0.0917439982295036,-0.9830759763717652,-0.0783239975571632,-1.0499999523162842,3.8324999809265137,0.4550000131130218
6.514751854599448,-0.0897919982671737,-0.981123983860016,-0.0856439992785453,-2.450000047683716,1.8899999856948853,1.225000023841858
6.5349213649852045,-0.0800319984555244,-0.9855159521102904,-0.0873520001769065,-3.884999990463257,0.1400000005960464,1.2424999475479126
6.555090875370961,-0.0675880014896392,-0.9877119660377502,-0.0873520001769065,-4.602499961853027,-1.662500023841858,0.8924999833106995
6.575260385756718,-0.0588039979338645,-0.9984479546546936,-0.0805199965834617,-4.865000247955322,-4.445000171661377,0.875
6.595429896142475,-0.0534359999001026,-0.9950319528579712,-0.0861319974064827,-4.130000114440918,-5.337500095367432,1.0325000286102295
6.615599406528232,-0.0434319972991943,-0.9947879910469056,-0.0900359973311424,-3.815000057220459,-5.670000076293945,1.0850000381469729
6.635768916913989,-0.033671997487545,-0.9925919771194458,-0.0961359962821006,-3.622499942779541,-5.599999904632568,1.0499999523162842
6.655938427299746,-0.0324519984424114,-0.9945439696311952,-0.1017479971051216,-3.7799999713897705,-4.96999979019165,1.2074999809265137
6.676107937685503,-0.0361119993031024,-0.9967399835586548,-0.1005280017852783,-3.762500047683716,-3.954999923706055,1.3825000524520874
6.6962774480712595,-0.0392839983105659,-0.9901520013809204,-0.0905239954590797,-3.3600001335144043,-3.0274999141693115,1.4350000619888306
6.716446958457016,-0.0392839983105659,-0.9823439717292786,-0.085156001150608,-3.2725000381469727,-2.1700000762939453,1.4700000286102295
6.736616468842773,-0.0444080010056495,-0.9833199977874756,-0.0844239965081214,-4.392499923706055,-1.3650000095367432,1.3300000429153442
6.75678597922853,-0.0414799973368644,-0.9852719902992249,-0.0871080011129379,-5.355000019073486,-0.8050000071525574,1.1375000476837158
6.776955489614287,-0.0451399981975555,-0.987223982810974,-0.0888160020112991,-5.809999942779541,-0.0700000002980232,1.1024999618530271
6.797125000000044,-0.0495319999754428,-0.9938119649887084,-0.0895479992032051,-6.107500076293945,0.5074999928474426,1.190000057220459
6.817294510385801,-0.0490439981222152,-0.9916160106658936,-0.0883279964327812,-5.740000247955322,0.8575000166893005,1.1375000476837158
6.837464020771558,-0.0487999990582466,-0.9879559874534608,-0.0890600010752677,-5.460000038146973,1.2599999904632568,1.0850000381469729
6.857633531157314,-0.047580000013113,-0.9862479567527772,-0.0924759954214096,-5.302500247955322,1.7675000429153442,1.1024999618530271
6.877803041543071,-0.0461159981787204,-0.9852719902992249,-0.0932080000638961,-5.565000057220459,2.3975000381469727,1.1375000476837158
6.897972551928828,-0.0487999990582466,-0.9850279688835144,-0.0912560001015663,-6.054999828338623,3.255000114440918,1.2074999809265137
6.918142062314585,-0.0509959980845451,-0.9879559874534608,-0.0919879972934722,-6.615000247955322,3.902499914169312,1.3300000429153442
6.938311572700342,-0.0544119998812675,-0.9850279688835144,-0.0919879972934722,-6.632500171661377,4.199999809265137,1.3825000524520874
6.958481083086099,-0.0629519969224929,-0.9794159531593324,-0.0910120010375976,-6.789999961853027,4.09499979019165,1.3300000429153442
6.978650593471856,-0.0688079968094825,-0.9777079820632936,-0.0936959981918335,-7.034999847412109,3.692500114440918,1.225000023841858
6.9988201038576126,-0.0685639977455139,-0.9777079820632936,-0.1010159999132156,-7.244999885559082,3.447499990463257,1.5750000476837158
7.018989614243369,-0.0646599978208541,-0.9757559895515442,-0.1010159999132156,-8.242500305175781,3.220000028610229,2.065000057220459
7.039159124629126,-0.0600240007042884,-0.9730719923973083,-0.1024799942970275,-9.607500076293944,3.184999942779541,2.484999895095825
7.059328635014883,-0.0607559978961944,-0.9794159531593324,-0.1076039969921112,-10.97249984741211,3.0274999141693115,2.8350000381469727
7.07949814540064,-0.0639280006289482,-0.9808799624443054,-0.1076039969921112,-11.585000038146973,2.782500028610229,2.922499895095825
7.099667655786397,-0.065880000591278,-0.977463960647583,-0.1105320006608963,-11.6899995803833,2.8350000381469727,2.852499961853028
7.119837166172154,-0.0688079968094825,-0.9769759774208068,-0.1110199987888336,-11.899999618530272,2.747499942779541,2.9049999713897705
7.140006676557911,-0.0719799995422363,-0.9725840091705322,-0.1127279996871948,-11.84749984741211,2.6600000858306885,3.184999942779541
7.1601761869436675,-0.0719799995422363,-0.9703879952430724,-0.110287994146347,-12.460000038146973,2.432500123977661,3.815000057220459
7.180345697329424,-0.0661239996552467,-0.97599995136261,-0.1190719977021217,-14.262499809265137,1.5750000476837158,5.022500038146973
7.200515207715181,-0.0663679987192154,-0.9764879941940308,-0.1268799901008606,-14.787500381469728,1.4524999856948853,5.074999809265137
7.220684718100938,-0.0685639977455139,-0.9720959663391112,-0.1327359974384308,-14.647500038146973,1.4350000619888306,4.952499866485596
7.240854228486695,-0.0724679976701736,-0.9662399888038636,-0.1334680020809173,-14.524999618530272,1.4350000619888306,4.724999904632568
7.261023738872452,-0.0705159977078437,-0.9594079852104188,-0.1393239945173263,-14.752500534057615,0.875,4.760000228881836
7.281193249258209,-0.0678320005536079,-0.9591639637947084,-0.142984002828598,-15.907500267028809,0.8224999904632568,5.144999980926514
7.301362759643966,-0.0588039979338645,-0.9620919823646544,-0.1493279933929443,-17.079999923706055,0.7875000238418579,5.494999885559082
7.3215322700297225,-0.0558759979903698,-0.9611159563064576,-0.153231993317604,-17.657499313354492,1.277500033378601,5.84499979019165
7.341701780415479,-0.0588039979338645,-0.9550159573554992,-0.1539639979600906,-18.112499237060547,1.680000066757202,6.142499923706055
7.361871290801236,-0.0644159987568855,-0.9515999555587769,-0.1561599969863891,-19.0575008392334,1.9424999952316284,6.545000076293945
7.382040801186993,-0.0744199976325035,-0.948915958404541,-0.1581119894981384,-19.98500061035156,2.134999990463257,6.860000133514404
7.40221031157275,-0.0790559947490692,-0.9462319612503052,-0.1595759987831115,-21.104999542236328,2.065000057220459,7.175000190734863
7.422379821958507,-0.0822279974818229,-0.9430599808692932,-0.1637239903211593,-22.45249938964844,1.924999952316284,7.525000095367432
7.442549332344264,-0.0819839984178543,-0.944279968738556,-0.1654319912195205,-24.27250099182129,1.75,8.067500114440918
7.462718842730021,-0.076615996658802,-0.9547719955444336,-0.1725080013275146,-26.127500534057617,1.784999966621399,8.6274995803833
7.4828883531157775,-0.075883999466896,-0.9515999555587769,-0.1729959994554519,-26.75749969482422,1.8899999856948853,8.487500190734863
7.503057863501534,-0.0788119956851005,-0.9486719965934752,-0.1715319901704788,-27.71999931335449,1.6100000143051147,8.154999732971191
7.523227373887291,-0.0839359983801841,-0.9513559937477112,-0.1722639948129654,-28.787500381469727,1.3825000524520874,8.154999732971191
7.543396884273048,-0.0856439992785453,-0.9440360069274902,-0.1756799966096878,-29.190000534057617,1.2599999904632568,8.487500190734863
7.563566394658805,-0.0861319974064827,-0.929152011871338,-0.1751919984817505,-29.75,1.3125,9.100000381469728
7.583735905044562,-0.0839359983801841,-0.9210999608039856,-0.177387997508049,-31.237499237060547,1.1200000047683716,9.9399995803833
7.603905415430319,-0.0844239965081214,-0.913047969341278,-0.1805599927902221,-32.67250061035156,1.1375000476837158,10.762499809265137
7.624074925816076,-0.0793000012636184,-0.901091992855072,-0.1810479909181594,-33.897499084472656,1.2074999809265137,11.077500343322754
7.6442444362018325,-0.0753960013389587,-0.8913319706916809,-0.1805599927902221,-35.682498931884766,1.3125,11.199999809265137
7.664413946587589,-0.0761279985308647,-0.8781560063362122,-0.1808039993047714,-37.17000198364258,1.2949999570846558,11.234999656677246
7.684583456973346,-0.0710039958357811,-0.8588799834251404,-0.183243989944458,-38.43000030517578,1.5750000476837158,11.654999732971191
7.704752967359103,-0.0746639966964721,-0.8447279930114746,-0.1851959973573684,-40.61750030517578,1.8899999856948853,12.704999923706056
7.72492247774486,-0.0846679955720901,-0.8393599987030029,-0.1871479898691177,-43.872501373291016,2.0824999809265137,13.789999961853027
7.745091988130617,-0.0763719975948333,-0.8288679718971252,-0.1947119981050491,-47.057498931884766,1.627500057220459,14.5600004196167
7.765261498516374,-0.0724679976701736,-0.8210600018501282,-0.1976400017738342,-50.15499877929688,2.0824999809265137,15.399999618530272
7.785431008902131,-0.0783239975571632,-0.7978799939155579,-0.2083759903907776,-54.26750183105469,3.640000104904175,16.572500228881836
7.8056005192878875,-0.0739319995045661,-0.7829959988594055,-0.2115480005741119,-56.0525016784668,4.497499942779541,17.184999465942383
7.825770029673644,-0.0724679976701736,-0.7654280066490173,-0.220331996679306,-57.34749984741211,5.6875,18.024999618530277
7.845939540059401,-0.0631959959864616,-0.7437120079994202,-0.2171600013971328,-59.39500045776367,6.982500076293945,19.11000061035156
7.866109050445158,-0.0727119967341423,-0.7215079665184021,-0.2208199948072433,-60.970001220703125,7.909999847412109,20.002500534057617
7.886278560830915,-0.1027240008115768,-0.6790519952774048,-0.2271640002727508,-60.74250030517578,7.157500267028809,20.57999992370605
7.906448071216672,-0.1254159957170486,-0.6544079780578613,-0.2235039919614792,-62.89500045776367,4.865000247955322,21.90999984741211
7.926617581602429,-0.1576239913702011,-0.6873480081558228,-0.249123990535736,-64.15499877929688,-0.2275000065565109,22.732500076293945
7.946787091988186,-0.1268799901008606,-0.7049160003662109,-0.2386319935321808,-54.35499954223633,-8.260000228881836,22.295000076293945
7.966956602373942,-0.1688479930162429,-0.6624599695205688,-0.2439999878406524,-42.997501373291016,-10.079999923706056,23.69499969482422
7.987126112759699,-0.1827559918165207,-0.640500009059906,-0.2952399849891662,-39.619998931884766,-17.762500762939453,26.46000099182129
8.007295623145456,-0.1934919953346252,-0.5668119788169861,-0.4199239909648895,-36.62749862670898,-17.149999618530273,28.89249992370605
8.027465133531212,-0.2186239957809448,-0.5224040150642395,-0.4457879960536957,-42.29750061035156,-12.267499923706056,33.67000198364258
8.047634643916968,-0.1903200000524521,-0.5887719988822937,-0.3181760013103485,-55.772499084472656,-12.145000457763672,38.9375
8.067804154302724,-0.1808039993047714,-0.8083719611167908,-0.4213880002498626,-71.80249786376953,-20.895000457763672,41.369998931884766
8.08797366468848,-0.1966639906167984,-0.8444839715957642,-0.5934079885482788,-63.10499954223633,-32.51499938964844,42.525001525878906
8.108143175074236,-0.2547360062599182,-0.8169119954109192,-0.5597360134124756,-53.23500061035156,-35.57749938964844,46.4275016784668
8.128312685459992,-0.3201279938220978,-0.696619987487793,-0.4823879897594452,-48.14250183105469,-41.807498931884766,51.32749938964844
8.148482195845748,-0.1839759945869445,-0.5768159627914429,-0.3362320065498352,-51.15250015258789,-41.03749847412109,54.880001068115234
8.168651706231504,0.1110199987888336,-0.3947919905185699,-0.2154520004987716,-57.88999938964844,-32.00749969482422,53.07749938964844
8.18882121661726,0.4897079765796661,-0.1727519929409027,-0.0165919996798038,-68.00499725341797,-20.982500076293945,38.63999938964844
8.208990727003016,0.7093079686164856,-0.0749079957604408,0.1232199966907501,-76.17749786376953,-13.19499969482422,-4.777500152587891
8.229160237388772,0.4777520000934601,0.4208999872207641,0.2803559899330139,-36.13750076293945,8.4350004196167,-63.665000915527344
8.249329747774528,0.0217159986495971,1.113860011100769,0.2698639929294586,-44.432498931884766,68.09249877929688,-21.927499771118164
8.269499258160284,-0.8947479724884033,-0.2408279925584793,0.3325719833374023,-222.52999877929688,93.67749786376952,55.42250061035156
8.28966876854604,-1.7099519968032837,-0.742247998714447,-1.3515160083770752,-161.2449951171875,-33.61750030517578,151.32249450683594
8.309838278931796,-1.5162159204483032,-1.0435879230499268,-2.066923856735229,-106.6449966430664,-109.9000015258789,252.54249572753903
8.330007789317552,-1.024067997932434,-0.0880839973688125,-5.831599712371826,-490.9450073242188,220.4300079345703,78.94249725341797
8.350177299703308,-0.2784039974212646,0.6631919741630554,-1.305400013923645,-216.87750244140625,-262.3600158691406,41.05500030517578
8.370346810089064,-1.969323992729187,1.211459994316101,-3.230315923690796,-165.21749877929688,-218.69749450683597,109.93499755859376
8.39051632047482,-1.2761199474334717,-0.4736039936542511,-1.9385799169540403,-124.61750030517578,15.977499961853027,23.15250015258789
8.410685830860576,-0.9821000099182128,1.829267978668213,-1.0128439664840698,-292.2850036621094,159.56500244140625,-48.03749847412109
8.430855341246332,-1.287343978881836,0.2410719990730285,-1.7785159349441528,-510.0375061035156,6.650000095367432,44.852500915527344
8.451024851632088,-0.8566839694976807,0.6849079728126526,-1.3561519384384155,-485.5025024414063,-145.4949951171875,163.27499389648438
8.471194362017844,-0.4618919789791107,0.5555880069732666,-1.0167479515075684,-365.2250061035156,-92.29499816894533,139.3175048828125
8.4913638724036,-0.2503440082073211,0.5131319761276245,-0.3786879777908325,-279.2300109863281,5.09250020980835,59.307498931884766
8.511533382789356,-0.5682759881019592,0.7212640047073364,0.0780799984931945,-251.00250244140625,31.692501068115234,15.295000076293944
8.531702893175112,-0.210327997803688,0.0934519991278648,-0.2049599885940551,-163.46749877929688,-141.85499572753906,35.962501525878906
8.551872403560868,0.3089039921760559,-0.7554239630699158,-0.5499759912490845,-105.0,-243.25,117.5999984741211
8.572041913946624,-0.2557120025157928,-0.0402599982917308,-0.6853960156440735,30.55500030517578,-30.030000686645508,163.1699981689453
8.59221142433238,-0.3545320034027099,-2.0215399265289307,-1.6262599229812622,125.77249908447266,-194.75750732421875,305.5325012207031
8.612380934718136,0.0888160020112991,3.266916036605835,-1.0545679330825806,509.8800048828125,182.6300048828125,91.94499969482422
8.632550445103892,0.1129719987511634,3.665855884552002,0.981611967086792,428.87249755859375,45.0625,183.87249755859372
8.652719955489648,-0.1273680031299591,0.4879999756813049,-0.5428999662399292,16.39750099182129,8.994999885559082,-19.65250015258789
8.672889465875404,-0.2510759830474853,0.248879998922348,-0.5826719999313354,-26.46000099182129,0.962499976158142,-21.262500762939453
8.69305897626116,-0.2901159822940826,0.3608759939670563,-0.5243560075759888,48.9474983215332,20.667499542236328,-24.604999542236328
8.713228486646916,-0.2698639929294586,0.3611199855804443,-0.6100000143051147,150.97250366210938,9.15250015258789,-48.86000061035156
8.733397997032672,-0.4557919800281524,0.5421679615974426,-0.6121959686279297,272.1075134277344,-13.212499618530272,-59.307498931884766
8.753567507418428,-0.5121560096740723,0.6919839978218079,-0.6719759702682495,209.0375061035156,-41.352500915527344,-41.89500045776367
8.773737017804184,-0.4052839875221252,0.6749039888381958,-0.6866160035133362,73.53500366210938,-36.032501220703125,-18.690000534057617
8.79390652818994,-0.3982079923152923,0.6702679991722107,-0.8098359704017639,5.232500076293945,-20.737499237060547,-5.320000171661377
8.814076038575696,-0.3806400001049042,0.6326919794082642,-0.9147560000419616,-6.650000095367432,-13.072500228881836,-2.1700000762939453
8.834245548961452,-0.3821039795875549,0.66075199842453,-0.9650200009346008,-11.480000495910645,-9.59000015258789,-0.4550000131130218
8.854415059347208,-0.4177280068397522,0.6056079864501953,-1.001376032829285,-18.690000534057617,-5.599999904632568,0.8575000166893005
8.874584569732964,-0.4838519990444183,0.5297240018844604,-0.97599995136261,-13.265000343322754,-0.9975000023841858,1.2949999570846558
8.89475408011872,-0.4499360024929046,0.4328559935092926,-0.9389119744300842,3.849999904632568,1.9075000286102293,0.4550000131130218
8.914923590504475,-0.4052839875221252,0.3752720057964325,-0.8793759942054749,24.237499237060547,2.6075000762939453,-0.875
8.935093100890231,-0.3779560029506683,0.3513599932193756,-0.8276479840278625,43.61000061035156,6.177500247955322,-1.837499976158142
8.955262611275987,-0.3579480051994324,0.3318399786949157,-0.8242319822311401,62.317501068115234,10.605000495910645,-2.3975000381469727
8.975432121661743,-0.338916003704071,0.2888959944248199,-0.8205719590187073,75.82749938964844,11.952500343322754,-2.8350000381469727
8.9956016320475,-0.3274479806423187,0.2120359987020492,-0.7756760120391846,75.56500244140625,4.900000095367432,-6.054999828338623
9.015771142433255,-0.3494080007076263,0.1598199903964996,-0.7825079560279846,61.21500015258789,2.432500123977661,-7.559999942779541
9.035940652819011,-0.3679519891738891,0.1207799986004829,-0.8156920075416565,40.51250076293945,2.380000114440918,-7.752500057220459
9.056110163204767,-0.3552640080451965,0.1751919984817505,-0.8349679708480835,24.727500915527344,2.345000028610229,-6.789999961853027
9.076279673590523,-0.3640480041503906,0.1998360008001327,-0.8510719537734985,20.545000076293945,-0.332500010728836,-6.755000114440918
9.09644918397628,-0.3777119815349579,0.1851959973573684,-0.8762039542198181,19.40749931335449,-3.552500009536743,-7.297500133514404
9.116618694362035,-0.3967439830303192,0.175924003124237,-0.8988959789276123,17.2549991607666,-4.130000114440918,-7.087500095367432
9.136788204747791,-0.4006479978561401,0.1981279999017715,-0.929152011871338,16.59000015258789,-1.5575000047683716,-5.827499866485596
9.156957715133547,-0.3947919905185699,0.2015440016984939,-0.9657520055770874,14.80500030517578,4.21750020980835,-3.884999990463257
9.177127225519303,-0.4023559987545013,0.1890999972820282,-1.0133320093154907,14.752500534057615,8.242500305175781,-2.6424999237060547
9.19729673590506,-0.4201679825782776,0.1554279923439026,-1.048467993736267,9.817500114440918,11.952500343322754,-1.347499966621399
9.217466246290815,-0.4126040041446686,0.1507920026779174,-1.0384639501571655,2.0299999713897705,15.067500114440918,-0.4375
9.237635756676571,-0.3723439872264862,0.1905639916658401,-0.9884439706802368,-1.2424999475479126,15.032500267028809,0.0525000020861625
9.257805267062327,-0.3603879809379577,0.1795839965343475,-0.9437919855117798,-0.8224999904632568,13.107500076293944,0.5950000286102295
9.277974777448083,-0.3518480062484741,0.177387997508049,-0.9140239953994752,-0.8575000166893005,10.920000076293944,1.0674999952316284
9.29814428783384,-0.3423320055007934,0.1866599917411804,-0.8964560031890869,-0.2800000011920929,8.6274995803833,1.1549999713897705
9.318313798219595,-0.3267160058021545,0.1810479909181594,-0.8940159678459167,0.2450000047683715,7.71750020980835,1.2424999475479126
9.338483308605351,-0.3196399807929992,0.1695799976587295,-0.8884040117263794,0.0700000002980232,6.527500152587891,0.9975000023841858
9.358652818991107,-0.3150039911270141,0.1612839996814727,-0.8793759942054749,-0.4200000166893005,3.132499933242798,0.3849999904632568
9.378822329376863,-0.3198840022087097,0.1720200031995773,-0.8740079998970032,-0.8575000166893005,0.1749999970197677,-0.2275000065565109
9.398991839762619,-0.3250080049037933,0.181779995560646,-0.8857199549674988,-1.924999952316284,-1.5575000047683716,-0.3675000071525574
9.419161350148375,-0.3394039869308471,0.1864160001277923,-0.9215880036354064,-5.547500133514404,-2.6600000858306885,0.5425000190734863
9.439330860534131,-0.3476999998092651,0.1883679926395416,-0.925491988658905,-6.684999942779541,-2.9574999809265137,0.9800000190734864
9.459500370919887,-0.3523359894752502,0.1930039972066879,-0.9276880025863647,-6.772500038146973,-4.112500190734863,1.0674999952316284
9.479669881305643,-0.3559959828853607,0.2000799924135208,-0.9279319643974304,-6.195000171661377,-5.302500247955322,0.9100000262260436
9.499839391691399,-0.3552640080451965,0.2044719904661178,-0.9225639700889589,-5.284999847412109,-5.985000133514404,0.5600000023841858
9.520008902077155,-0.3559959828853607,0.2027639895677566,-0.9088999629020692,-4.304999828338623,-5.827499866485596,0.3149999976158142
9.540178412462911,-0.3584359884262085,0.1986159980297088,-0.8986519575119019,-3.447499990463257,-5.162499904632568,0.0350000001490116
9.560347922848667,-0.3594119846820831,0.1964199990034103,-0.8905999660491943,-2.817500114440918,-4.427500247955322,-0.2100000083446502
9.580517433234423,-0.3596560060977936,0.2005679905414581,-0.8781560063362122,-2.0824999809265137,-3.569999933242798,-0.5074999928474426
9.600686943620179,-0.3611199855804443,0.1986159980297088,-0.8735199570655823,-2.047499895095825,-2.765000104904175,-0.2975000143051147
9.620856454005935,-0.3620959818363189,0.1969079971313476,-0.8737639784812927,-2.327500104904175,-1.715000033378601,-0.1050000041723251
9.641025964391691,-0.3618519902229309,0.1969079971313476,-0.8793759942054749,-2.677500009536743,-0.8924999833106995,-0.0350000001490116
9.661195474777447,-0.3630719780921936,0.20032399892807,-0.8876720070838928,-2.765000104904175,-0.4724999964237213,0.0350000001490116
9.681364985163203,-0.3659999966621399,0.2056919932365417,-0.8993839621543884,-1.924999952316284,0.3499999940395355,0.0350000001490116
9.701534495548959,-0.3635599911212921,0.2047159969806671,-0.8964560031890869,-0.5600000023841858,0.6650000214576721,-0.0874999985098838
9.721704005934715,-0.3618519902229309,0.2037400007247924,-0.8930400013923645,0.1050000041723251,1.2424999475479126,-0.1924999952316284
9.74187351632047,-0.359167993068695,0.2000799924135208,-0.8905999660491943,0.6299999952316284,1.9600000381469729,-0.2275000065565109
9.762043026706227,-0.3579480051994324,0.1995919942855835,-0.8893799781799316,0.962499976158142,2.782500028610229,-0.1225000023841857
9.782212537091983,-0.3525799810886383,0.1991039961576461,-0.8820599913597107,0.5774999856948853,3.5174999237060547,0.1050000041723251
9.802382047477739,-0.3528240025043487,0.2037400007247924,-0.8971880078315735,0.3675000071525574,3.5350000858306885,0.1050000041723251
9.822551557863495,-0.3513599932193756,0.2027639895677566,-0.9006040096282959,0.2100000083446502,3.289999961853028,0.1749999970197677
9.84272106824925,-0.3516039848327636,0.2054480016231537,-0.9013359546661376,-0.1050000041723251,2.922499895095825,0.2450000047683715
9.862890578635007,-0.3530679941177368,0.2044719904661178,-0.9049959778785706,-0.262499988079071,2.380000114440918,0.262499988079071
9.883060089020763,-0.3523359894752502,0.2047159969806671,-0.9088999629020692,-0.332500010728836,1.5924999713897705,0.2275000065565109
9.903229599406519,-0.3525799810886383,0.205935999751091,-0.905239999294281,-0.3849999904632568,0.9100000262260436,0.2100000083446502
9.923399109792275,-0.3523359894752502,0.205935999751091,-0.903775990009308,-0.3675000071525574,0.5774999856948853,0.1749999970197677
9.94356862017803,-0.3533119857311249,0.2044719904661178,-0.9020679593086244,-0.3499999940395355,0.1749999970197677,0.1225000023841857
9.963738130563787,-0.3525799810886383,0.2064239978790283,-0.9030439853668212,-0.2800000011920929,-0.2975000143051147,0.0350000001490116
9.983907640949543,-0.3530679941177368,0.2071560025215149,-0.9032880067825316,0.0350000001490116,-0.612500011920929,-0.0874999985098838
10.004077151335299,-0.3530679941177368,0.2054480016231537,-0.8996279835700989,0.4025000035762787,-1.0499999523162842,-0.2275000065565109
10.024246661721055,-0.3528240025043487,0.2012999951839447,-0.8964560031890869,0.6299999952316284,-1.399999976158142,-0.3499999940395355
10.04441617210681,-0.3557519912719726,0.2005679905414581,-0.8957239985466003,0.8050000071525574,-1.7324999570846558,-0.5249999761581421
10.064585682492567,-0.3552640080451965,0.201787993311882,-0.892795979976654,0.7524999976158142,-1.9075000286102293,-0.5950000286102295
10.084755192878323,-0.3552640080451965,0.2030079960823059,-0.8888919949531555,0.3149999976158142,-1.784999966621399,-0.4550000131130218
10.104924703264079,-0.3567279875278473,0.2047159969806671,-0.8886479735374451,-0.262499988079071,-1.4175000190734863,-0.2975000143051147
10.125094213649835,-0.3577039837837219,0.2052039951086044,-0.8937720060348511,-0.5074999928474426,-1.0325000286102295,-0.2275000065565109
10.14526372403559,-0.3598999977111816,0.206179991364479,-0.8976759910583496,0.3499999940395355,-0.5425000190734863,-0.4200000166893005
10.165433234421346,-0.3594119846820831,0.2073999941349029,-0.8984079957008362,0.6650000214576721,-0.4200000166893005,-0.4025000035762787
10.185602744807102,-0.3594119846820831,0.2064239978790283,-0.8971880078315735,1.0850000381469729,-0.2275000065565109,-0.4375
10.205772255192858,-0.3579480051994324,0.2052039951086044,-0.8945040106773376,1.3125,-0.1574999988079071,-0.4375
10.225941765578614,-0.3574599921703338,0.2044719904661178,-0.8920639753341675,1.347499966621399,-0.0700000002980232,-0.4200000166893005
10.24611127596437,-0.3574599921703338,0.2027639895677566,-0.8925519585609436,1.2949999570846558,0.0175000000745058,-0.3849999904632568
10.266280786350126,-0.3577039837837219,0.2022759914398193,-0.892795979976654,1.225000023841858,0.1225000023841857,-0.3499999940395355
10.286450296735882,-0.3579480051994324,0.2008119970560073,-0.8947479724884033,1.2074999809265137,0.3149999976158142,-0.262499988079071
10.306619807121638,-0.3579480051994324,0.201787993311882,-0.8962119817733765,1.1375000476837158,0.2975000143051147,-0.2275000065565109
10.326789317507394,-0.3584359884262085,0.2047159969806671,-0.896943986415863,1.1549999713897705,0.0700000002980232,-0.2975000143051147
10.34695882789315,-0.3586799800395965,0.2020319998264312,-0.8966999650001526,1.225000023841858,-0.2100000083446502,-0.3675000071525574
10.367128338278906,-0.3594119846820831,0.2020319998264312,-0.8962119817733765,1.2424999475479126,-0.3499999940395355,-0.4025000035762787
10.387297848664662,-0.3594119846820831,0.1998360008001327,-0.8984079957008362,1.3300000429153442,-0.5600000023841858,-0.4025000035762787
10.407467359050418,-0.3594119846820831,0.2015440016984939,-0.8986519575119019,1.2599999904632568,-0.7699999809265137,-0.4375
10.427636869436174,-0.3601439893245697,0.20032399892807,-0.8940159678459167,1.1200000047683716,-0.962499976158142,-0.4724999964237213
10.44780637982193,-0.3584359884262085,0.1983719915151596,-0.8876720070838928,0.8050000071525574,-0.9100000262260436,-0.4724999964237213
10.467975890207686,-0.3596560060977936,0.20032399892807,-0.8954799771308899,0.7699999809265137,-1.0325000286102295,-0.4724999964237213
10.488145400593442,-0.3606320023536682,0.2005679905414581,-0.8991400003433228,0.9449999928474426,-1.2599999904632568,-0.5249999761581421
10.508314910979198,-0.3616079986095428,0.2015440016984939,-0.8996279835700989,1.0499999523162842,-1.399999976158142,-0.5249999761581421
10.528484421364954,-0.3623400032520294,0.2015440016984939,-0.8964560031890869,1.1375000476837158,-1.2599999904632568,-0.4900000095367431
10.54865393175071,-0.3625839948654175,0.2010560035705566,-0.896943986415863,1.277500033378601,-1.2074999809265137,-0.4724999964237213
10.568823442136466,-0.363315999507904,0.1995919942855835,-0.8957239985466003,1.347499966621399,-1.1024999618530271,-0.4200000166893005
10.588992952522222,-0.3642919957637787,0.1993480026721954,-0.895967960357666,1.347499966621399,-1.0149999856948853,-0.4025000035762787
10.609162462907978,-0.3640480041503906,0.1986159980297088,-0.8945040106773376,1.347499966621399,-1.0149999856948853,-0.3849999904632568
10.629331973293734,-0.3645359873771667,0.1976400017738342,-0.8932839632034302,1.225000023841858,-0.8400000333786011,-0.3675000071525574
10.64950148367949,-0.3650240004062652,0.1991039961576461,-0.8945040106773376,1.1375000476837158,-0.6650000214576721,-0.332500010728836
10.669670994065246,-0.3652679920196533,0.1986159980297088,-0.895967960357666,1.0674999952316284,-0.5600000023841858,-0.3149999976158142
10.689840504451002,-0.3647799789905548,0.1966639906167984,-0.8942599892616272,1.0674999952316284,-0.5600000023841858,-0.2975000143051147
10.710010014836758,-0.3650240004062652,0.1966639906167984,-0.8925519585609436,0.962499976158142,-0.4900000095367431,-0.2800000011920929
10.730179525222514,-0.3650240004062652,0.1966639906167984,-0.8940159678459167,0.9275000095367432,-0.6474999785423279,-0.332500010728836
10.75034903560827,-0.3652679920196533,0.1964199990034103,-0.8920639753341675,0.8400000333786011,-0.699999988079071,-0.332500010728836
10.770518545994026,-0.3659999966621399,0.1964199990034103,-0.8913319706916809,0.7350000143051147,-0.699999988079071,-0.3149999976158142
10.790688056379782,-0.3659999966621399,0.195932000875473,-0.8920639753341675,0.6474999785423279,-0.5425000190734863,-0.2975000143051147
10.810857566765538,-0.366487979888916,0.1971519887447357,-0.8952359557151794,0.5950000286102295,-0.3675000071525574,-0.2800000011920929
10.831027077151294,-0.3669759929180145,0.1971519887447357,-0.895967960357666,0.612500011920929,-0.4200000166893005,-0.3149999976158142
10.85119658753705,-0.3684400022029876,0.196175992488861,-0.8957239985466003,0.5950000286102295,-0.3675000071525574,-0.2975000143051147
10.871366097922806,-0.3672199845314026,0.195932000875473,-0.8947479724884033,0.5774999856948853,-0.3849999904632568,-0.3149999976158142
10.891535608308562,-0.3679519891738891,0.195932000875473,-0.8945040106773376,0.5425000190734863,-0.4025000035762787,-0.332500010728836
10.911705118694318,-0.3689279854297638,0.1969079971313476,-0.8952359557151794,0.5600000023841858,-0.6825000047683716,-0.3849999904632568
10.931874629080074,-0.3689279854297638,0.1969079971313476,-0.8945040106773376,0.5774999856948853,-1.0674999952316284,-0.4375
10.95204413946583,-0.3681959807872772,0.1964199990034103,-0.8932839632034302,0.4375,-1.2599999904632568,-0.4550000131130218
10.972213649851586,-0.367464005947113,0.1949559897184372,-0.8908439874649048,0.3149999976158142,-1.3300000429153442,-0.4900000095367431
10.992383160237342,-0.3677079975605011,0.1949559897184372,-0.8898679614067078,0.1574999988079071,-1.0674999952316284,-0.3849999904632568
11.012552670623098,-0.3691720068454742,0.1949559897184372,-0.8901119828224182,0.1225000023841857,-0.6825000047683716,-0.2975000143051147
11.032722181008854,-0.3694159984588623,0.1944679915904998,-0.8932839632034302,0.1574999988079071,-0.2275000065565109,-0.1924999952316284
11.05289169139461,-0.3689279854297638,0.1956879943609237,-0.8935279846191406,0.1225000023841857,0.0350000001490116,-0.1400000005960464
11.073061201780366,-0.3701480031013489,0.195932000875473,-0.8932839632034302,0.1225000023841857,0.262499988079071,-0.1050000041723251
11.093230712166122,-0.3708800077438354,0.195932000875473,-0.8923079967498779,0.1400000005960464,0.2275000065565109,-0.0874999985098838
11.113400222551878,-0.3701480031013489,0.196175992488861,-0.8935279846191406,0.262499988079071,0.2800000011920929,-0.1225000023841857
11.133569732937634,-0.3708800077438354,0.1964199990034103,-0.8940159678459167,0.2975000143051147,0.262499988079071,-0.0874999985098838
11.15373924332339,-0.3718560039997101,0.1951999962329864,-0.892795979976654,0.3149999976158142,0.2800000011920929,-0.1574999988079071
11.173908753709146,-0.3691720068454742,0.1927599906921386,-0.8842560052871704,0.0350000001490116,0.332500010728836,-0.1400000005960464
11.194078264094902,-0.3701480031013489,0.1942239999771118,-0.8915759921073914,0.1050000041723251,0.0874999985098838,-0.2450000047683715
11.214247774480658,-0.3696599900722503,0.1954440027475357,-0.8940159678459167,0.4200000166893005,-0.262499988079071,-0.4025000035762787
11.234417284866414,-0.3703919947147369,0.196175992488861,-0.8932839632034302,0.332500010728836,-0.5774999856948853,-0.4025000035762787
11.25458679525217,-0.3699039816856384,0.1978839933872223,-0.8945040106773376,0.262499988079071,-0.8400000333786011,-0.4375
11.274756305637926,-0.3708800077438354,0.1969079971313476,-0.8945040106773376,0.1924999952316284,-0.9800000190734864,-0.4900000095367431
11.294925816023682,-0.3730759918689728,0.1954440027475357,-0.8937720060348511,0.0874999985098838,-1.0149999856948853,-0.4375
11.315095326409438,-0.3779560029506683,0.1934919953346252,-0.8932839632034302,-0.0175000000745058,-1.1200000047683716,-0.332500010728836
11.335264836795194,-0.3691720068454742,0.2027639895677566,-0.8930400013923645,-0.7875000238418579,-1.3825000524520874,0.0525000020861625
11.35543434718095,-0.3689279854297638,0.2010560035705566,-0.8886479735374451,-1.4874999523162842,-1.1024999618530271,0.0874999985098838
11.375603857566706,-0.3774679899215698,0.2008119970560073,-0.8864519596099854,-2.275000095367432,-0.5600000023841858,0.0874999985098838
11.395773367952462,-0.3835679888725281,0.196175992488861,-0.8896239995956421,-2.4674999713897705,-0.262499988079071,0.1924999952316284
11.415942878338218,-0.3857640027999878,0.196175992488861,-0.8954799771308899,-2.625,-0.6474999785423279,0.3849999904632568
11.436112388723974,-0.3889359831809997,0.2064239978790283,-0.9069479703903198,-3.0975000858306885,-2.0824999809265137,0.2275000065565109
11.45628189910973,-0.391864001750946,0.2030079960823059,-0.9220759868621826,-3.237499952316284,-3.4825000762939453,-0.1050000041723251
11.476451409495485,-0.387715995311737,0.20032399892807,-0.9274439811706544,-2.9574999809265137,-4.199999809265137,-0.5950000286102295
11.496620919881241,-0.387715995311737,0.2052039951086044,-0.9201239943504332,-3.009999990463257,-4.917500019073486,-1.2074999809265137
11.516790430266997,-0.3921079933643341,0.196175992488861,-0.8988959789276123,-2.940000057220459,-6.947500228881836,-1.3300000429153442
11.536959940652753,-0.3872279822826385,0.1949559897184372,-0.8686400055885315,-3.1675000190734863,-9.135000228881836,-0.7175000309944153
11.55712945103851,-0.3852759897708893,0.196175992488861,-0.8464359641075134,-4.182499885559082,-12.005000114440918,-1.0325000286102295
11.577298961424265,-0.3425759971141815,0.1776320040225982,-0.8447279930114746,-5.897500038146973,-13.877500534057615,-0.1574999988079071
11.597468471810021,-0.3772239983081817,0.1949559897184372,-0.8547319769859314,-7.71750020980835,-14.210000038146973,0.8400000333786011
11.617637982195777,-0.3740519881248474,0.1973959952592849,-0.8581479787826538,-8.522500038146973,-15.557499885559082,1.3650000095367432
11.637807492581533,-0.3711239993572235,0.2012999951839447,-0.8752279877662659,-9.59000015258789,-16.467500686645508,0.9975000023841858
11.65797700296729,-0.3972319960594177,0.2034959942102432,-0.8986519575119019,-9.65999984741211,-19.424999237060547,0.6474999785423279
11.678146513353045,-0.4196799993515014,0.2098399996757507,-0.9215880036354064,-10.56999969482422,-25.287500381469727,0.1400000005960464
11.698316023738801,-0.423583984375,0.2259439975023269,-0.9479399919509888,-10.86750030517578,-33.494998931884766,-0.6299999952316284
11.718485534124557,-0.4299280047416687,0.2422920018434524,-0.958187997341156,-9.765000343322754,-40.98500061035156,-1.5575000047683716
11.738655044510313,-0.4504239857196808,0.2559559941291809,-0.9716079831123352,-8.470000267028809,-46.025001525878906,-4.497499942779541
11.75882455489607,-0.4941000044345855,0.2608360052108764,-1.0011320114135742,-3.0625,-46.67250061035156,-7.017499923706055
11.778994065281825,-0.5433880090713501,0.3050000071525574,-1.047003984451294,8.102499961853027,-44.36249923706055,-9.869999885559082
11.799163575667581,-0.5848680138587952,0.3191519975662231,-1.0670119524002075,6.317500114440918,-38.90250015258789,-10.90250015258789
11.819333086053337,-0.6058520078659058,0.3901560008525848,-1.1375279426574707,7.192500114440918,-40.442501068115234,-19.82749938964844
11.839502596439093,-0.6024360060691833,0.3777119815349579,-1.0287039279937744,7.227499961853027,-51.852500915527344,-30.11750030517578
11.85967210682485,-0.5992639660835266,0.2769399881362915,-0.8210600018501282,24.342500686645508,-69.93000030517578,-32.4275016784668
11.879841617210605,-0.6468439698219299,0.3457480072975158,-0.7873879671096802,52.51750183105469,-71.10250091552734,-40.23250198364258
11.900011127596361,-0.6502599716186523,0.3064639866352081,-0.8108119964599609,47.18000030517578,-51.50249862670898,-75.82749938964844
11.920180637982117,-0.5277720093727112,0.2493679970502853,-0.8037359714508057,-2.5374999046325684,-47.96749877929688,-78.54000091552734
11.940350148367873,-0.5072759985923767,-0.0507519990205764,-1.1533880233764648,-9.957500457763672,-19.950000762939453,-63.38500213623047
11.960519658753629,-0.4260239899158478,0.0861319974064827,-0.8081279993057251,61.337501525878906,-66.51750183105469,-90.125
11.980689169139385,-0.8152039647102356,0.4467639923095703,-0.9681919813156128,74.67250061035156,4.235000133514404,-138.6175079345703
12.000858679525141,-1.120692014694214,0.4243159890174866,-1.039927959442139,54.67000198364258,116.07749938964844,-259.4549865722656
12.021028189910897,-1.5389080047607422,0.1808039993047714,-0.8203279972076416,40.72249984741211,107.15250396728516,-144.21749877929688
12.041197700296653,-0.7324879765510559,-0.0922319963574409,-0.9408639669418336,12.18000030517578,-75.70500183105469,-14.332500457763672
12.061367210682409,-0.5895040035247803,-0.0448959991335868,-0.888159990310669,15.81999969482422,-53.23500061035156,-20.247499465942383
12.081536721068165,-0.5960919857025146,-0.1271239966154098,-0.7759199738502502,17.342500686645508,-34.63249969482422,-3.954999923706055
12.101706231453921,-0.4826319813728332,-0.1451800018548965,-0.7254120111465454,21.524999618530277,-48.42250061035156,3.0625
12.121875741839677,-0.4089439809322357,-0.2081319987773895,-0.737123966217041,24.7450008392334,-33.11000061035156,8.032500267028809
12.142045252225433,-0.3755159974098205,0.1595759987831115,-0.5938959717750549,35.33250045776367,3.6575000286102295,6.615000247955322
12.162214762611189,-0.4328559935092926,0.0002439999952912,-0.7119919657707214,4.357500076293945,6.720000267028809,13.649999618530272
12.182384272996945,-0.5043479800224304,-0.1068719998002052,-0.676367998123169,-7.332499980926514,33.18000030517578,14.927499771118164
12.202553783382701,-0.6014599800109863,-0.0502640008926391,-0.5660799741744995,-4.199999809265137,59.255001068115234,12.494999885559082
12.222723293768457,-0.6092680096626282,-0.0680759996175766,-0.52947998046875,-3.692500114440918,59.01000213623047,7.647500038146973
12.242892804154213,-0.5758399963378906,-0.1141919940710067,-0.493611991405487,3.4124999046325684,60.130001068115234,12.5649995803833
12.263062314539969,-0.5785239934921265,-0.3540439903736114,-0.5575399994850159,3.902499914169312,59.16749954223633,15.190000534057615
12.283231824925725,-0.5460720062255859,-0.1166319996118545,-0.5685200095176697,25.58500099182129,62.09000015258789,3.849999904632568
12.30340133531148,-0.5648599863052368,0.1737279891967773,-0.6441599726676941,31.13249969482422,44.53749847412109,6.615000247955322
12.323570845697237,-0.7237039804458618,0.2393639981746673,-0.7456640005111694,3.674999952316284,44.92250061035156,15.942500114440918
12.343740356082993,-0.8049559593200684,0.1356640011072158,-0.7446879744529724,-13.649999618530272,52.20249938964844,18.725000381469727
12.363909866468749,-0.7966600060462952,0.3198840022087097,-0.7520079612731934,-4.042500019073486,37.852500915527344,21.559999465942383
12.384079376854505,-0.6573359966278076,0.1171199977397918,-0.8100799918174744,-20.667499542236328,0.3149999976158142,13.19499969482422
12.40424888724026,-0.5067880153656006,-0.0263519994914531,-0.7649399638175964,-24.21999931335449,-1.5399999618530271,-3.569999933242798
12.424418397626017,-0.4291960000991821,0.1485960036516189,-0.7488359808921814,-4.777500152587891,-15.574999809265137,-1.0325000286102295
12.444587908011773,-0.3925960063934326,0.0422119982540607,-0.7083320021629333,-15.539999961853027,-20.212499618530277,-0.1225000023841857
12.464757418397529,-0.4511559903621673,-0.0161039996892213,-0.636352002620697,-19.967500686645508,-12.092499732971191,-1.4874999523162842
12.484926928783285,-0.508251965045929,0.1246839985251426,-0.6629480123519897,-13.020000457763672,-6.40500020980835,-15.137499809265137
12.50509643916904,-0.5421679615974426,0.1895879954099655,-0.6634359955787659,-10.02750015258789,-17.2549991607666,-15.890000343322754
12.525265949554797,-0.5343599915504456,0.0983319953083992,-0.6619719862937927,-18.8125,-11.619999885559082,-20.790000915527344
12.545435459940553,-0.5409479737281799,-0.0854000002145767,-0.7424919605255127,-11.74250030517578,-5.442500114440918,-21.875
12.565604970326309,-0.5053240060806274,0.0602679997682571,-0.7715280055999756,5.494999885559082,-9.642499923706056,-26.337499618530277
12.585774480712065,-0.4357839822769165,-0.046604000031948,-0.888159990310669,6.40500020980835,-24.587499618530277,-20.14249992370605
12.60594399109782,-0.4108960032463074,-0.1383479982614517,-0.8252080082893372,17.780000686645508,-8.78499984741211,-22.78499984741211
12.626113501483577,-0.3379400074481964,-0.1398119926452636,-0.7973920106887817,38.51750183105469,-13.475000381469728,-23.940000534057617
12.646283011869333,-0.3215920031070709,-0.104432001709938,-0.8261839747428894,51.22249984741211,-9.274999618530272,-25.53249931335449
12.666452522255089,-0.3608759939670563,-0.1507920026779174,-0.8591240048408508,45.8849983215332,17.832500457763672,-28.752500534057617
12.686622032640845,-0.4696999788284302,-0.1776320040225982,-0.8935279846191406,45.97249984741211,36.76750183105469,-27.457500457763672
12.7067915430266,-0.4643319845199585,-0.1954440027475357,-0.8974319696426392,57.470001220703125,37.397499084472656,-25.39249992370605
12.726961053412357,-0.4535959959030151,-0.2747440040111542,-0.8354560136795044,58.52000045776367,43.959999084472656,-28.03499984741211
12.747130563798112,-0.4416399896144867,-0.2989000082015991,-0.7729920148849487,65.76499938964844,39.584999084472656,-35.525001525878906
12.767300074183868,-0.4621360003948211,-0.3274479806423187,-0.7644519805908203,68.21500396728516,40.38999938964844,-42.40250015258789
12.787469584569624,-0.4772639870643616,-0.4265120029449463,-0.7961719632148743,67.49749755859375,23.537500381469727,-46.375
12.80763909495538,-0.5216720104217529,-0.3862519860267639,-0.8703479766845703,73.3949966430664,3.884999990463257,-49.0525016784668
12.827808605341136,-0.5194759964942932,-0.3440400063991546,-0.9276880025863647,71.47000122070312,-11.042500495910645,-47.58250045776367
12.847978115726892,-0.5128880143165588,-0.3640480041503906,-0.9247599840164183,67.4800033569336,-19.670000076293945,-41.790000915527344
12.868147626112648,-0.532651960849762,-0.4496919810771942,-0.8688839673995972,65.01249694824219,-15.399999618530272,-33.005001068115234
12.888317136498404,-0.5550999641418457,-0.4921479821205139,-0.8691279888153076,64.27750396728516,-14.052499771118164,-28.4375
12.90848664688416,-0.5119119882583618,-0.5402159690856934,-0.8488759994506836,62.03749847412109,-17.97249984741211,-28.73500061035156
12.928656157269916,-0.4548159837722778,-0.5426560044288635,-0.7600600123405457,64.36499786376953,-19.354999542236328,-31.412500381469727
12.948825667655672,-0.5048359632492065,-0.4433479905128479,-0.795195996761322,60.060001373291016,-16.572500228881836,-35.349998474121094
12.968995178041428,-0.4579879939556122,-0.4594520032405853,-0.737123966217041,51.834999084472656,-22.03249931335449,-37.59000015258789
12.989164688427184,-0.4018679857254028,-0.4738479852676391,-0.7234599590301514,53.935001373291016,-29.68000030517578,-35.77000045776367
13.00933419881294,-0.4980039894580841,-0.3518480062484741,-0.7832399606704712,57.522499084472656,-23.78249931335449,-36.18999862670898
13.029503709198696,-0.4577440023422241,-0.3601439893245697,-0.688323974609375,53.70750045776367,-31.780000686645508,-39.51499938964844
13.049673219584452,-0.370635986328125,-0.3738079965114593,-0.5733999609947205,53.34000015258789,-45.622501373291016,-35.647499084472656
13.069842729970208,-0.3223240077495575,-0.4157759845256805,-0.5255759954452515,47.72249984741211,-51.02999877929688,-29.575000762939453
13.090012240355964,-0.297679990530014,-0.533627986907959,-0.5592479705810547,39.34000015258789,-49.50749969482422,-29.645000457763672
13.11018175074172,-0.3525799810886383,-0.6004840135574341,-0.5450959801673889,34.755001068115234,-26.302499771118164,-32.84749984741211
13.130351261127476,-0.3484320044517517,-0.5646159648895264,-0.5048359632492065,38.20249938964844,-24.51749992370605,-34.755001068115234
13.150520771513232,-0.3801519870758056,-0.709551990032196,-0.3032920062541961,27.877500534057617,-17.27250099182129,-29.802499771118164
13.170690281898988,-0.3957679867744446,-0.7158960103988647,-0.3842999935150146,20.70249938964844,-24.3075008392334,-27.667499542236328
13.190859792284744,-0.4230960011482239,-0.7807999849319458,-0.4091880023479461,10.342499732971191,-13.649999618530272,-21.94499969482422
13.2110293026705,-0.473360002040863,-0.9013359546661376,-0.5014199614524841,13.404999732971191,-10.13249969482422,-13.335000038146973
13.231198813056256,-0.5409479737281799,-0.9672159552574158,-0.4709199965000152,23.362499237060547,2.117500066757202,-13.49250030517578
13.251368323442012,-0.5572959780693054,-1.007475972175598,-0.5155720114707947,27.299999237060547,-7.420000076293945,-22.46999931335449
13.271537833827768,-0.5194759964942932,-0.936959981918335,-0.5958479642868042,35.17499923706055,-16.537500381469727,-29.487499237060547
13.291707344213524,-0.4711639881134033,-0.7895839810371399,-0.5624200105667114,37.93999862670898,-21.38500022888184,-29.942501068115234
13.31187685459928,-0.4635999798774719,-0.7141879796981812,-0.5572959780693054,26.25,-27.037500381469727,-27.19499969482422
13.332046364985036,-0.5287479758262634,-0.7141879796981812,-0.5260639786720276,11.84749984741211,-21.50749969482422,-23.8174991607666
13.352215875370792,-0.5084959864616394,-0.7244359850883484,-0.5206959843635559,1.9075000286102293,-26.162500381469727,-21.82250022888184
13.372385385756548,-0.5343599915504456,-0.7105280160903931,-0.5516839623451233,-1.924999952316284,-25.5674991607666,-21.45499992370605
13.392554896142304,-0.480923980474472,-0.7000359892845154,-0.5280159711837769,-3.884999990463257,-31.395000457763672,-24.290000915527344
13.41272440652806,-0.4030880033969879,-0.7298039793968201,-0.5158159732818604,-7.192500114440918,-36.24250030517578,-27.49250030517578
13.432893916913816,-0.3267160058021545,-0.7590839862823486,-0.5697399973869324,-8.592499732971191,-43.20750045776367,-30.8700008392334
13.453063427299572,-0.2664479911327362,-0.6822239756584167,-0.5992639660835266,-7.525000095367432,-49.27999877929688,-34.10750198364258
13.473232937685328,-0.280599981546402,-0.5978000164031982,-0.6124399900436401,-8.470000267028809,-36.522499084472656,-33.07500076293945
13.493402448071084,-0.3416000008583069,-0.5819399952888489,-0.578279972076416,-12.442500114440918,-26.302499771118164,-27.125
13.51357195845684,-0.354775995016098,-0.56632399559021,-0.5797439813613892,-19.40749931335449,-25.82999992370605,-22.01499938964844
13.533741468842596,-0.3398919999599457,-0.5577839612960815,-0.6073160171508789,-25.917499542236328,-23.76499938964844,-22.61000061035156
13.553910979228352,-0.3328160047531128,-0.5594919919967651,-0.5904799699783325,-27.912500381469727,-22.1200008392334,-25.32250022888184
13.574080489614108,-0.3938159942626953,-0.5819399952888489,-0.575107991695404,-28.927499771118164,-22.364999771118164,-26.61750030517578
13.594249999999864,-0.4560360014438629,-0.6341559886932373,-0.5475360155105591,-26.774999618530277,-24.6924991607666,-27.63249969482422
13.61441951038562,-0.4987359941005707,-0.6905199885368347,-0.5753520131111145,-23.4325008392334,-22.837499618530277,-26.092500686645508
13.634589020771376,-0.4955639839172363,-0.7305359840393066,-0.5890159606933594,-17.6924991607666,-38.97249984741211,-20.440000534057617
13.654758531157132,-0.5141080021858215,-0.7827519774436951,-0.6209799647331238,-11.357500076293944,-47.09249877929688,-16.11750030517578
13.674928041542888,-0.5629079937934875,-0.7751879692077637,-0.6373279690742493,-1.4175000190734863,-44.817501068115234,-15.994999885559082
13.695097551928644,-0.537775993347168,-0.7639639973640442,-0.6731959581375122,12.3725004196167,-49.78749847412109,-17.0625
13.7152670623144,-0.4972719848155975,-0.748591959476471,-0.6207360029220581,28.82250022888184,-52.692501068115234,-15.68000030517578
13.735436572700156,-0.5402159690856934,-0.7180919647216797,-0.574131965637207,38.290000915527344,-51.29249954223633,-14.157500267028809
13.755606083085912,-0.6958879828453064,-0.7815319895744324,-0.399183988571167,42.8224983215332,-48.334999084472656,-10.797499656677246
13.775775593471668,-0.7217519879341125,-0.7451759576797485,-0.3923519849777221,44.869998931884766,-63.89250183105469,-8.119999885559082
13.795945103857424,-0.6422079801559448,-0.7368800044059753,-0.3799079954624176,41.00249862670898,-84.1050033569336,-16.887500762939453
13.81611461424318,-0.5333839654922485,-0.854487955570221,-0.3767359852790832,39.27000045776367,-90.0199966430664,-25.462499618530277
13.836284124628936,-0.4057720005512237,-0.8454599976539612,-0.3362320065498352,44.712501525878906,-95.49749755859376,-27.317501068115234
13.856453635014692,-0.3276920020580292,-0.7903159856796265,-0.2444880008697509,53.165000915527344,-85.3125,-25.8125
13.876623145400448,-0.3606320023536682,-0.7078439593315125,-0.2093520015478134,62.82500076293945,-69.26499938964844,-25.934999465942383
13.896792655786204,-0.3642919957637787,-0.748591959476471,-0.1649439930915832,54.79249954223633,-83.49250030517578,-16.922500610351562
13.91696216617196,-0.3645359873771667,-0.8532679677009583,-0.1503039896488189,42.122501373291016,-90.00250244140625,-13.6850004196167
13.937131676557716,-0.4604279994964599,-0.8869400024414062,-0.0634399950504303,35.3849983215332,-54.057498931884766,-15.505000114440918
13.957301186943472,-0.4870239794254303,-0.9569680094718932,-0.0544119998812675,37.625,-48.40499877929688,-33.127498626708984
13.977470697329228,-0.4704319834709167,-0.8740079998970032,-0.08661999553442,40.61750030517578,-50.66249847412109,-27.09000015258789
13.997640207714984,-0.4467639923095703,-0.8925519585609436,-0.0646599978208541,39.23500061035156,-80.72750091552734,-34.369998931884766
14.01780971810074,-0.4462759792804718,-0.8635159730911255,-0.0363559983670711,36.435001373291016,-88.49749755859375,-23.65999984741211
14.037979228486495,-0.4299280047416687,-0.8527799844741821,-0.0039039999246597,38.5525016784668,-76.0374984741211,-24.604999542236328
14.058148738872251,-0.4384679794311523,-0.8010519742965698,0.0251320004463195,44.95750045776367,-45.81499862670898,-22.399999618530277
14.078318249258007,-0.5328959822654724,-0.708575963973999,0.0634399950504303,43.067501068115234,-27.649999618530277,-20.14249992370605
14.098487759643763,-0.5690079927444458,-0.6766119599342346,0.0993079990148544,31.184999465942383,-30.22249984741211,-27.49250030517578
14.11865727002952,-0.5882840156555176,-0.6383039951324463,0.0763719975948333,16.99250030517578,-29.26000022888184,-32.060001373291016
14.138826780415275,-0.6095119714736938,-0.656603991985321,0.130295991897583,5.320000171661377,-28.630001068115234,-33.07500076293945
14.158996290801031,-0.6043879985809326,-0.6766119599342346,0.2108159959316253,-12.65250015258789,-36.470001220703125,-38.09749984741211
14.179165801186787,-0.6031680107116699,-0.7751879692077637,0.2381439954042434,-32.70750045776367,-54.3025016784668,-43.084999084472656
14.199335311572543,-0.5999959707260132,-0.8952359557151794,0.2527839839458465,-43.22499847412109,-65.22250366210938,-45.150001525878906
14.2195048219583,-0.5863319635391235,-1.1111760139465332,0.2503440082073211,-51.310001373291016,-75.37249755859375,-48.1775016784668
14.239674332344055,-0.636352002620697,-1.1589999198913574,0.0912560001015663,-44.22249984741211,-61.95000076293945,-57.13750076293945
14.259843842729811,-0.7366359829902649,-1.2980799674987793,0.1222440004348754,-37.2400016784668,-56.4375,-60.28749847412109
14.280013353115567,-0.6307399868965149,-1.3549319505691528,0.1339560002088546,-23.712499618530277,-57.15499877929688,-50.17250061035156
14.300182863501323,-0.5094720125198364,-1.539639949798584,0.0100039998069405,-27.649999618530277,-44.397499084472656,-27.440000534057617
14.32035237388708,-0.619271993637085,-1.667739987373352,0.047335997223854,-17.02750015258789,-25.1299991607666,-15.977499961853027
14.340521884272835,-0.7417600154876709,-1.5098719596862793,-0.0070759998634457,0.5249999761581421,-30.729999542236328,-39.182498931884766
14.360691394658591,-0.4457879960536957,-1.0082080364227295,-0.0741759985685348,-0.0525000020861625,-32.40999984741211,-55.84249877929688
14.380860905044347,-0.3223240077495575,-1.0272400379180908,-0.2322880029678344,-19.967500686645508,15.907500267028809,-50.872501373291016
14.401030415430103,-0.2291159927845001,-1.06359601020813,-0.3372080028057098,-25.112499237060547,56.682498931884766,-43.04999923706055
14.42119992581586,-0.3257399797439575,-1.1260600090026855,-0.2522960007190704,-21.542499542236328,77.13999938964844,-41.43999862670898
14.441369436201615,-0.3237879872322082,-1.1431399583816528,-0.1351760029792785,-11.00749969482422,45.02750015258789,-45.255001068115234
14.461538946587371,-0.2657159864902496,-1.0362679958343506,-0.2137439996004104,3.692500114440918,28.280000686645508,-51.52000045776367
14.481708456973127,-0.0797879993915557,-0.8561959862709045,-0.2164279967546463,16.309999465942383,2.922499895095825,-46.497501373291016
14.501877967358883,-0.046604000031948,-0.7456640005111694,-0.2320439964532852,14.489999771118164,22.645000457763672,-45.84999847412109
14.522047477744639,-0.0663679987192154,-0.8042240142822266,-0.1276119947433471,8.382499694824219,47.23250198364258,-37.90499877929688
14.542216988130395,-0.0649039968848228,-0.9242720007896424,-0.1537199914455413,0.2275000065565109,44.5724983215332,-32.35750198364258
14.562386498516151,-0.0971119999885559,-0.8457039594650269,-0.1076039969921112,3.762500047683716,35.3849983215332,-27.895000457763672
14.582556008901907,-0.1578679978847503,-0.90938800573349,-0.1254159957170486,-10.56999969482422,29.45249938964844,-14.4375
14.602725519287663,-0.1798280030488968,-0.8698599934577942,-0.1507920026779174,-9.345000267028809,25.690000534057617,-8.067500114440918
14.622895029673419,-0.142984002828598,-0.8754720091819763,-0.1825120002031326,-14.03499984741211,9.957500457763672,-7.804999828338623
14.643064540059175,-0.1161440014839172,-1.010892033576965,-0.1839759945869445,-20.7549991607666,16.309999465942383,-4.987500190734863
14.663234050444931,-0.0805199965834617,-0.9901520013809204,-0.2034959942102432,-6.860000133514404,16.99250030517578,-1.837499976158142
14.683403560830687,-0.1036999970674514,-0.9381799697875975,-0.1468880027532577,0.9100000262260436,29.137500762939453,-5.96750020980835
14.703573071216443,-0.2076440006494522,-1.009671926498413,-0.0956479981541633,-5.512499809265137,46.88249969482422,-8.1899995803833
14.723742581602199,-0.2847479879856109,-1.1060519218444824,0.0024399999529123,-10.272500038146973,64.6449966430664,-5.932499885559082
14.743912091987955,-0.3157359957695007,-0.9842959642410278,0.0158599987626075,-3.8324999809265137,53.20000076293945,-6.107500076293945
14.764081602373711,-0.2500999867916107,-0.965507984161377,-0.0400159992277622,-15.78499984741211,29.102500915527344,-2.677500009536743
14.784251112759467,-0.0553879998624324,-1.065303921699524,0.0470919981598854,-28.36750030517578,18.5674991607666,2.4674999713897705
14.804420623145223,-0.0805199965834617,-1.0562759637832642,-0.0427000001072883,-27.5625,29.137500762939453,3.6575000286102295
14.824590133530979,-0.0280600003898143,-0.9215880036354064,-0.1327359974384308,-21.612499237060547,33.6875,4.147500038146973
14.844759643916735,-0.0263519994914531,-0.8796199560165405,-0.1232199966907501,-31.63999938964844,63.90999984741211,7.559999942779541
14.86492915430249,0.0797879993915557,-0.856440007686615,-0.1678719967603683,-22.924999237060547,56.47249984741211,8.680000305175781
14.885098664688247,0.0448959991335868,-0.8859639763832092,-0.1337119936943054,-18.32250022888184,54.95000076293945,0.7875000238418579
14.905268175074003,-0.205935999751091,-0.8986519575119019,-0.0963799953460693,-14.227499961853027,56.82250213623047,-15.4350004196167
14.925437685459759,-0.3006079792976379,-0.9023119807243348,-0.033671997487545,-1.995000004768372,50.837501525878906,-27.387500762939453
14.945607195845515,-0.0043919999152421,-0.738099992275238,-0.0719799995422363,33.477500915527344,27.212499618530277,-17.657499313354492
14.96577670623127,0.0829599946737289,-0.7197999954223633,-0.0322079993784427,30.170000076293945,30.799999237060547,-9.15250015258789
14.985946216617027,0.0936959981918335,-0.7693319916725159,0.0727119967341423,19.967500686645508,33.564998626708984,2.9574999809265137
15.006115727002783,0.1066280007362365,-0.823743999004364,0.0822279974818229,15.505000114440918,36.73250198364258,17.079999923706055
15.026285237388539,0.1856839954853058,-0.8410679697990417,0.042943999171257,12.022500038146973,29.049999237060547,28.280000686645508
15.046454747774295,0.2520520091056824,-0.8574159741401672,-0.0783239975571632,6.947500228881836,30.520000457763672,28.350000381469727
15.06662425816005,0.1854400038719177,-0.8561959862709045,-0.1332239955663681,16.55500030517578,67.21749877929688,18.270000457763672
15.086793768545807,0.061243999749422,-0.8510719537734985,-0.1810479909181594,27.405000686645508,96.19750213623048,13.510000228881836
15.106963278931563,0.0280600003898143,-0.8452159762382507,-0.1812919974327087,35.717498779296875,102.07749938964844,14.664999961853027
15.127132789317319,-0.0139079997316002,-0.8225240111351013,-0.1861719936132431,45.39500045776367,109.93499755859376,18.024999618530277
15.147302299703075,-0.0004879999905824,-0.8508279919624329,-0.2393639981746673,49.84000015258789,107.34500122070312,21.857500076293945
15.16747181008883,-0.0431879982352256,-0.8303319811820984,-0.2354599982500076,53.619998931884766,108.34249877929688,23.92250061035156
15.187641320474587,-0.0763719975948333,-0.8230119943618774,-0.2278959900140762,52.1150016784668,108.29000091552734,22.1200008392334
15.207810830860343,-0.1017479971051216,-0.8893799781799316,-0.2235039919614792,45.220001220703125,109.4800033569336,23.239999771118164
15.227980341246099,-0.1022359952330589,-0.9515999555587769,-0.210327997803688,43.76750183105469,111.51000213623048,26.40749931335449
15.248149851631855,-0.0492879971861839,-1.0052800178527832,-0.226187989115715,43.6974983215332,112.22750091552734,29.417499542236328
15.26831936201761,-0.0470919981598854,-1.0069879293441772,-0.2459519952535629,46.165000915527344,115.20249938964844,30.11750030517578
15.288488872403367,-0.0514839999377727,-0.9547719955444336,-0.2749879956245422,49.665000915527344,114.69499969482422,29.417499542236328
15.308658382789122,-0.0712479948997497,-0.9225639700889589,-0.2596159875392914,51.17000198364258,116.93499755859376,27.405000686645508
15.328827893174878,-0.0485559999942779,-0.8908439874649048,-0.2566879987716675,50.73250198364258,117.82749938964844,23.20499992370605
15.348997403560634,-0.0975999981164932,-0.8852319717407227,-0.3372080028057098,44.52000045776367,118.96500396728516,17.149999618530273
15.36916691394639,-0.1586000025272369,-0.8620519638061523,-0.3808839917182922,41.02000045776367,121.0999984741211,13.387499809265137
15.389336424332146,-0.1981279999017715,-0.8805959820747375,-0.3037799894809723,31.167499542236328,121.64250183105467,14.175000190734863
15.409505934717902,-0.2098399996757507,-1.0613999366760254,-0.3886919915676117,16.22249984741211,121.23999786376952,9.397500038146973
15.429675445103658,-0.2183799892663955,-0.9713639616966248,-0.4911719858646393,35.80500030517578,118.14250183105467,8.592499732971191
15.449844955489414,-0.1424959897994995,-0.9906399846076964,-0.4677479863166809,43.3125,115.30750274658205,9.25749969482422
15.47001446587517,-0.3911319971084595,-0.9120720028877258,-0.1383479982614517,32.40999984741211,118.00250244140624,3.5174999237060547
15.490183976260926,-0.7119919657707214,-1.2673360109329224,0.205935999751091,-4.865000247955322,104.75499725341795,-13.177499771118164
15.510353486646682,-0.8042240142822266,-1.315891981124878,0.3894239962100982,-7.227499961853027,88.58499908447266,-32.40999984741211
15.530522997032438,-0.3974759876728058,-1.305400013923645,0.0997959971427917,0.5600000023841858,59.23749923706055,-25.357500076293945
15.550692507418194,0.0161039996892213,-1.2390320301055908,0.3891800045967102,24.13249969482422,81.4625015258789,13.6850004196167
15.57086201780395,-0.0461159981787204,-1.2729480266571045,0.3001199960708618,7.664999961853027,81.05999755859375,13.842499732971191
15.591031528189706,-0.1895879954099655,-1.1743719577789309,0.2337519973516464,20.737499237060547,82.51249694824219,8.925000190734863
15.611201038575462,-0.3623400032520294,-0.9298839569091796,0.128831997513771,38.185001373291016,84.57749938964844,6.335000038146973
15.631370548961218,-0.4377360045909881,-0.8610759973526001,0.13298000395298,49.997501373291016,89.23249816894531,9.397500038146973
15.651540059346974,-0.4997119903564453,-0.6939359903335571,0.1224879994988441,52.43000030517578,87.5,15.225000381469728
15.67170956973273,-0.3767359852790832,-0.6636799573898315,0.0844239965081214,28.052499771118164,74.30500030517578,19.774999618530277
15.691879080118486,-0.2178919911384582,-0.6792960166931152,0.0954039990901947,15.539999961853027,75.7750015258789,27.667499542236328
15.712048590504242,-0.0724679976701736,-0.6263479590415955,0.047580000013113,3.3949999809265137,74.42749786376953,30.1875
15.732218100889998,-0.0263519994914531,-0.5702279806137085,0.0231800004839897,-8.960000038146973,77.13999938964844,29.137500762939453
15.752387611275754,-0.1266359984874725,-0.549731969833374,0.0319640003144741,-22.5575008392334,84.75250244140625,24.07999992370605
15.77255712166151,-0.2742559909820556,-0.7010120153427124,0.0483120009303092,-44.1875,84.71749877929688,11.619999885559082
15.792726632047266,-0.3999159932136535,-0.8942599892616272,-0.071492001414299,-57.102500915527344,78.50499725341797,-6.929999828338623
15.812896142433022,-0.5111799836158752,-1.0104039907455444,-0.1793399900197982,-50.22499847412109,69.30000305175781,-22.190000534057617
15.833065652818778,-0.5887719988822937,-1.030411958694458,-0.0683199986815452,-34.650001525878906,49.665000915527344,-28.73500061035156
15.853235163204534,-0.6251279711723328,-1.093608021736145,-0.0446520000696182,-29.78499984741211,21.857500076293945,-25.00749969482422
15.87340467359029,-0.6024360060691833,-1.1219120025634766,-0.0534359999001026,-22.69750022888184,-2.0824999809265137,-18.864999771118164
15.893574183976046,-0.5099599957466125,-1.0848239660263062,-0.0492879971861839,-15.38249969482422,-23.170000076293945,-14.36750030517578
15.913743694361802,-0.3796640038490295,-1.0687199831008911,-0.0405040010809898,-13.720000267028809,-38.41249847412109,-10.43000030517578
15.933913204747558,-0.2845039963722229,-1.0452959537506104,-0.032940000295639,-11.84749984741211,-49.4375,-7.664999961853027
15.954082715133314,-0.236191987991333,-0.9911279678344728,-0.0544119998812675,-7.542500019073486,-58.69499969482422,-6.650000095367432
15.97425222551907,-0.249123990535736,-0.9152439832687378,-0.0683199986815452,-3.237499952316284,-63.244998931884766,-5.670000076293945
15.994421735904826,-0.2776719927787781,-0.8701039552688599,-0.0649039968848228,-3.115000009536743,-68.84500122070312,-5.617499828338623
16.014591246290582,-0.3113439977169037,-0.859611988067627,-0.0697840005159378,-5.460000038146973,-74.69000244140625,-7.507500171661377
16.034760756676338,-0.3355000019073486,-0.8854759931564331,-0.0832040011882782,-7.227499961853027,-83.9124984741211,-9.029999732971191
16.054930267062094,-0.3469679951667785,-0.8993839621543884,-0.0861319974064827,-10.237500190734863,-95.84750366210938,-11.917500495910645
16.07509977744785,-0.3406240046024322,-0.9006040096282959,-0.1254159957170486,-12.845000267028809,-108.53500366210938,-16.55500030517578
16.095269287833606,-0.3276920020580292,-0.8971880078315735,-0.1703120023012161,-15.38249969482422,-120.10250091552734,-21.6825008392334
16.115438798219362,-0.2942639887332916,-0.8993839621543884,-0.1912959963083267,-21.052499771118164,-130.6024932861328,-24.237499237060547
16.135608308605118,-0.2217959910631179,-0.9271999597549438,-0.2015440016984939,-28.262500762939453,-136.9199981689453,-24.02750015258789
16.155777818990874,-0.1112639978528022,-0.9911279678344728,-0.2195999920368194,-34.82500076293945,-139.4925079345703,-24.02750015258789
16.17594732937663,-0.0827159956097602,-0.9757559895515442,-0.1930039972066879,-30.520000457763672,-135.22250366210938,-25.934999465942383
16.196116839762386,-0.0590479969978332,-0.9855159521102904,-0.1654319912195205,-30.04750061035156,-127.26000213623048,-28.262500762939453
16.216286350148142,-0.0639280006289482,-0.9964959621429444,-0.109555996954441,-24.20249938964844,-113.4000015258789,-29.90749931335449
16.236455860533898,-0.0719799995422363,-1.0016199350357056,-0.1154119968414306,-20.49250030517578,-104.96500396728516,-32.8125
16.256625370919654,-0.1149239987134933,-0.9977160096168518,-0.1490840017795562,-17.639999389648438,-94.88500213623048,-33.897499084472656
16.27679488130541,-0.1434720009565353,-0.9850279688835144,-0.1615279912948608,-13.107500076293944,-84.3324966430664,-32.67250061035156
16.296964391691166,-0.1720200031995773,-0.9716079831123352,-0.1905639916658401,-9.0649995803833,-77.0875015258789,-31.920000076293945
16.31713390207692,-0.2100839912891388,-0.9799039959907532,-0.1981279999017715,-7.945000171661377,-70.36750030517578,-31.43000030517578
16.337303412462678,-0.2237479984760284,-1.0372439622879028,-0.1930039972066879,-10.53499984741211,-63.78749847412109,-26.70499992370605
16.357472922848434,-0.195932000875473,-1.0311440229415894,-0.1537199914455413,-6.002500057220459,-57.907501220703125,-18.165000915527344
16.37764243323419,-0.0117119997739791,-1.044808030128479,-0.1449359953403473,-3.762500047683716,-54.057498931884766,-10.079999923706056
16.397811943619946,0.1544519960880279,-1.024067997932434,-0.1076039969921112,4.619999885559082,-58.02999877929688,-7.105000019073486
16.4179814540057,0.1378600001335144,-0.8461920022964478,-0.0783239975571632,16.4325008392334,-51.17000198364258,-13.859999656677246
16.438150964391458,0.1712879985570907,-0.8979200124740601,0.0936959981918335,-0.6299999952316284,-42.0525016784668,-16.677499771118164
16.458320474777214,0.1610399931669235,-1.276852011680603,-0.0871080011129379,-27.877500534057617,-37.65999984741211,-1.7324999570846558
16.47848998516297,0.0710039958357811,-1.319551944732666,-0.2322880029678344,-6.230000019073486,-12.862500190734863,4.252500057220459
16.498659495548726,0.0651479959487915,-0.8252080082893372,-0.1590880006551742,28.787500381469727,-1.5225000381469729,5.022500038146973
16.51882900593448,0.0749079957604408,-0.7612800002098083,-0.0153719997033476,7.997499942779541,2.712500095367432,4.96999979019165
16.538998516320238,0.095160000026226,-0.9147560000419616,0.0080519998446106,-13.52750015258789,1.715000033378601,4.042500019073486
16.559168026705994,0.0507519990205764,-1.1702239513397217,-0.003171999938786,-26.46000099182129,7.804999828338623,5.862500190734863
16.57933753709175,0.0422119982540607,-1.3712799549102783,0.0946719944477081,-26.38999938964844,12.494999885559082,5.442500114440918
16.599507047477505,0.0871080011129379,-1.331995964050293,0.1561599969863891,-10.0625,8.890000343322754,0.1050000041723251
16.61967655786326,0.1105320006608963,-1.138260006904602,0.0988200008869171,8.662500381469727,4.462500095367432,-10.43000030517578
16.639846068249017,0.0997959971427917,-1.016503930091858,0.0607559978961944,12.774999618530272,3.377500057220459,-20.52750015258789
16.660015578634773,0.0661239996552467,-0.925491988658905,0.0619760006666183,11.550000190734863,1.3825000524520874,-27.649999618530277
16.68018508902053,-0.0119559997692704,-0.8859639763832092,0.1000399962067604,7.787499904632568,-2.1875,-29.049999237060547
16.700354599406285,-0.0880839973688125,-0.8378959894180298,0.1212679967284202,6.929999828338623,-8.75,-26.02250099182129
16.72052410979204,-0.1249279975891113,-0.8457039594650269,0.1122400015592575,3.692500114440918,-17.832500457763672,-19.18000030517578
16.740693620177797,-0.1073599979281425,-0.9247599840164183,0.0895479992032051,0.8050000071525574,-27.825000762939453,-9.380000114440918
16.760863130563553,0.0229359995573759,-0.961847960948944,0.0053679998964071,3.622499942779541,-37.380001068115234,5.232500076293945
16.78103264094931,0.0802759975194931,-0.9767319560050964,-0.0627079978585243,-0.962499976158142,-33.564998626708984,6.510000228881836
16.801202151335065,0.0897919982671737,-1.0330959558486938,-0.1354199945926666,-7.385000228881836,-24.395000457763672,5.162499904632568
16.82137166172082,0.0912560001015663,-1.083359956741333,-0.1808039993047714,-8.34749984741211,-11.637499809265137,0.0874999985098838
16.841541172106577,0.1078479960560798,-1.0850679874420166,-0.2154520004987716,-4.025000095367432,1.5225000381469729,-5.09250020980835
16.861710682492333,0.0949160009622573,-1.0745760202407837,-0.2134999930858612,0.7350000143051147,16.309999465942383,-7.804999828338623
16.88188019287809,0.0605119988322258,-1.050176024436951,-0.1842200011014938,3.884999990463257,27.14249992370605,-9.677499771118164
16.902049703263845,-0.0192760005593299,-0.9520879983901978,-0.163235992193222,22.592500686645508,35.209999084472656,-4.53249979019165
16.9222192136496,-0.321835994720459,-0.8966999650001526,-0.1512800008058548,20.405000686645508,51.712501525878906,8.942500114440918
16.942388724035357,-0.0507519990205764,-1.1253279447555542,-0.0060999998822808,-11.917500495910645,19.354999542236328,-11.480000495910645
16.962558234421113,-0.020983999595046,-0.8552199602127075,0.006343999877572,8.557499885559082,22.45249938964844,-13.177499771118164
16.98272774480687,-0.0029279999434947,-0.9250040054321288,0.0500199981033802,-13.49250030517578,18.5674991607666,-18.74250030517578
17.002897255192625,-0.1073599979281425,-1.050663948059082,0.0854000002145767,-26.65250015258789,16.607500076293945,-30.100000381469727
17.02306676557838,-0.1129719987511634,-1.029191970825195,0.038307998329401,-15.154999732971191,1.4175000190734863,-28.280000686645508
17.043236275964137,-0.0344039984047412,-1.0177240371704102,-0.0043919999152421,-0.612500011920929,-9.100000381469728,-10.885000228881836
17.063405786349893,0.0495319999754428,-1.0050359964370728,0.0134199997410178,6.510000228881836,-10.640000343322754,3.237499952316284
17.08357529673565,0.1471319943666458,-0.9994239807128906,0.0451399981975555,7.945000171661377,-10.797499656677246,9.607500076293944
17.103744807121405,0.1951999962329864,-0.9508680105209352,0.0314759984612464,8.960000038146973,-4.235000133514404,10.640000343322754
17.12391431750716,0.1803160011768341,-0.9450119733810424,0.0187879987061023,6.422500133514404,5.932499885559082,8.697500228881836
17.144083827892917,0.1564040035009384,-0.9528200030326844,0.0131759997457265,4.042500019073486,12.61750030517578,6.579999923706055
17.164253338278673,0.1239520013332367,-0.9633119702339172,0.0200079996138811,3.132499933242798,17.412500381469727,5.914999961853027
17.18442284866443,0.0751519948244094,-0.9650200009346008,0.0297679994255304,3.587500095367432,20.52750015258789,7.070000171661377
17.204592359050185,0.0590479969978332,-0.9569680094718932,0.0395279973745346,5.53000020980835,20.020000457763672,10.517499923706056
17.22476186943594,0.0702719986438751,-0.9357399940490724,0.038307998329401,6.579999923706055,19.424999237060547,15.837499618530272
17.244931379821697,0.0890600010752677,-0.932811975479126,0.0175679996609687,4.409999847412109,20.405000686645508,21.489999771118164
17.265100890207453,0.143227994441986,-0.9515999555587769,-0.0553879998624324,-0.962499976158142,20.982500076293945,25.024999618530277
17.28527040059321,0.0885719954967498,-1.0738439559936523,-0.2127679884433746,-14.03499984741211,25.059999465942383,23.747499465942383
17.305439910978965,-0.0180559996515512,-1.2958840131759644,-0.119559995830059,-22.575000762939453,34.66749954223633,10.272500038146973
17.32560942136472,-0.0148839997127652,-1.2148759365081787,0.0056119998916983,-8.102499961853027,33.529998779296875,-8.295000076293945
17.345778931750477,0.0217159986495971,-1.0379760265350342,-0.0114679997786879,4.934999942779541,27.825000762939453,-15.154999732971191
17.365948442136233,-0.0685639977455139,-0.8708359599113464,-0.0688079968094825,7.244999885559082,29.137500762939453,-5.442500114440918
17.38611795252199,-0.1261480003595352,-0.8884040117263794,-0.0405040010809898,2.414999961853028,26.54750061035156,0.875
17.406287462907745,-0.1100439950823783,-0.9738039970397948,-0.0431879982352256,-5.232500076293945,20.247499465942383,2.8350000381469727
17.4264569732935,-0.0739319995045661,-1.0555440187454224,-0.0297679994255304,-6.632500171661377,15.102499961853027,0.7524999976158142
17.446626483679257,-0.066611997783184,-1.1053199768066406,0.0043919999152421,-4.795000076293945,9.625,-4.637499809265137
17.466795994065013,-0.0663679987192154,-1.14191997051239,-0.0124439997598528,-0.9100000262260436,3.7799999713897705,-10.46500015258789
17.48696550445077,-0.0790559947490692,-1.0618879795074463,-0.0409919992089271,13.369999885559082,0.9800000190734864,-11.4975004196167
17.507135014836525,-0.0910120010375976,-0.9799039959907532,-0.071492001414299,23.450000762939453,1.7324999570846558,-6.702499866485596
17.52730452522228,-0.0827159956097602,-0.9608719944953918,-0.1063839942216873,26.65250015258789,2.2049999237060547,-2.065000057220459
17.547474035608037,-0.0431879982352256,-0.9325679540634156,-0.1073599979281425,26.512500762939453,3.325000047683716,0.1924999952316284
17.567643545993793,0.0143959997221827,-0.9667279720306396,-0.0985759943723678,17.815000534057617,8.557499885559082,2.345000028610229
17.58781305637955,0.0556319989264011,-1.0531039237976074,-0.1005280017852783,8.1899995803833,16.65999984741211,6.142499923706055
17.607982566765305,0.0507519990205764,-1.1050759553909302,-0.1019919961690902,7.909999847412109,23.957500457763672,10.167500495910645
17.62815207715106,0.0175679996609687,-1.0767719745635986,-0.0961359962821006,15.24250030517578,29.627500534057617,12.932499885559082
17.648321587536817,-0.0324519984424114,-1.0235799551010132,-0.1073599979281425,21.997499465942383,33.38999938964844,15.539999961853027
17.668491097922573,-0.0939399972558021,-0.97843998670578,-0.1107759997248649,26.354999542236328,35.80500030517578,17.13249969482422
17.68866060830833,-0.1554279923439026,-0.9079239964485168,-0.1146799996495246,29.225000381469727,36.17250061035156,17.674999237060547
17.708830118694085,-0.2078879922628402,-0.9103639721870422,-0.1090679988265037,22.207500457763672,33.86249923706055,18.51499938964844
17.72899962907984,-0.2293599992990493,-0.9223200082778932,-0.0829599946737289,16.274999618530273,29.802499771118164,20.7549991607666
17.749169139465597,-0.224480003118515,-0.9340319633483888,-0.0719799995422363,11.095000267028809,26.040000915527344,22.207500457763672
17.769338649851353,-0.2030079960823059,-0.9906399846076964,-0.0609999969601631,3.220000028610229,22.417499542236328,22.01499938964844
17.78950816023711,-0.1871479898691177,-1.026263952255249,-0.0517279990017414,-0.0874999985098838,20.3174991607666,19.950000762939453
17.809677670622865,-0.2030079960823059,-1.0674999952316284,-0.0304999984800815,-1.347499966621399,20.26499938964844,17.674999237060547
17.82984718100862,-0.1905639916658401,-1.036512017250061,-0.0346480011940002,4.514999866485596,17.325000762939453,16.537500381469727
17.850016691394377,-0.1761679947376251,-1.0116239786148071,-0.0395279973745346,8.3125,16.799999237060547,16.83500099182129
17.870186201780133,-0.1615279912948608,-0.9508680105209352,-0.0241560004651546,15.539999961853027,16.607500076293945,12.984999656677246
17.89035571216589,-0.167383998632431,-0.9772199988365172,-0.0402599982917308,12.512499809265137,15.557499885559082,12.61750030517578
17.910525222551644,-0.163235992193222,-1.0011320114135742,0.0075639998540282,3.220000028610229,12.337499618530272,18.725000381469727
17.9306947329374,-0.1676279902458191,-0.9964959621429444,0.0363559983670711,0.5774999856948853,11.8125,23.852500915527344
17.950864243323156,-0.1737279891967773,-0.9230519533157348,0.0370879992842674,1.347499966621399,11.077500343322754,25.165000915527344
17.971033753708912,-0.1837320029735565,-0.8932839632034302,0.0636840015649795,-6.492499828338623,8.907500267028809,18.462499618530277
17.99120326409467,-0.1722639948129654,-0.9342759847640992,0.0736880004405975,-9.835000038146973,7.262499809265137,16.3799991607666
18.011372774480424,-0.1639679968357086,-0.9342759847640992,0.0893040001392364,-9.274999618530272,5.96750020980835,14.279999732971191
18.03154228486618,-0.1481079906225204,-0.9347639679908752,0.1007720008492469,-10.045000076293944,5.512499809265137,10.832500457763672
18.051711795251936,-0.1298079937696457,-0.9128040075302124,0.1097999960184097,-10.46500015258789,5.477499961853027,6.090000152587891
18.071881305637692,-0.1283439993858337,-0.8971880078315735,0.1034559980034828,-12.65250015258789,7.192500114440918,1.7675000429153442
18.09205081602345,-0.1178519949316978,-0.907435953617096,0.0907679945230484,-14.980000495910645,9.274999618530272,-2.065000057220459
18.112220326409204,-0.076615996658802,-0.901579976081848,0.119559995830059,-16.25749969482422,10.779999732971191,-6.492499828338623
18.13238983679496,-0.0895479992032051,-0.9454999566078186,0.1173639968037605,-21.315000534057617,16.905000686645508,-7.945000171661377
