Time (seconds),acc_x,acc_y,acc_z,gyro_x,gyro_y,gyro_z
0.0203121387283237,-0.0736880004405975,-0.9952759742736816,-0.0436760000884532,-0.332500010728836,-0.1225000023841857,0.0350000001490116
0.0406242774566474,-0.0739319995045661,-0.9950319528579712,-0.0444080010056495,-0.3849999904632568,-0.1400000005960464,0.1225000023841857
0.0609364161849711,-0.0753960013389587,-0.9960079789161682,-0.0436760000884532,-0.5249999761581421,-0.1225000023841857,0.1400000005960464
0.0812485549132948,-0.0744199976325035,-0.9960079789161682,-0.0446520000696182,-0.5774999856948853,-0.0525000020861625,0.1400000005960464
0.1015606936416185,-0.0724679976701736,-0.9947879910469056,-0.0461159981787204,-0.4724999964237213,0.0525000020861625,0.0700000002980232
0.1218728323699422,-0.0722239986062049,-0.9957639575004578,-0.0456280000507831,-0.4375,0.1574999988079071,0.1225000023841857
0.1421849710982659,-0.0722239986062049,-0.9960079789161682,-0.0451399981975555,-0.3675000071525574,0.262499988079071,0.0700000002980232
0.1624971098265896,-0.0722239986062049,-0.9962520003318788,-0.0446520000696182,-0.332500010728836,0.4724999964237213,0.0874999985098838
0.18280924855491332,-0.0727119967341423,-0.9952759742736816,-0.0448959991335868,-0.3149999976158142,0.5950000286102295,0.0175000000745058
0.20312138728323703,-0.0741759985685348,-0.9950319528579712,-0.0470919981598854,-0.5074999928474426,0.8224999904632568,-0.0175000000745058
0.22343352601156075,-0.0744199976325035,-0.9947879910469056,-0.0463600009679794,-0.5074999928474426,0.8224999904632568,-0.0175000000745058
0.24374566473988446,-0.0751519948244094,-0.9952759742736816,-0.0478239990770816,-0.5950000286102295,0.8224999904632568,-0.0175000000745058
0.2640578034682082,-0.0741759985685348,-0.9950319528579712,-0.0468479990959167,-0.5074999928474426,0.8050000071525574,-0.0700000002980232
0.2843699421965319,-0.0729559957981109,-0.9952759742736816,-0.0490439981222152,-0.5600000023841858,0.8050000071525574,-0.0874999985098838
0.3046820809248556,-0.0732000023126602,-0.9947879910469056,-0.0490439981222152,-0.5774999856948853,0.8400000333786011,-0.0525000020861625
0.3249942196531793,-0.0732000023126602,-0.9943000078201294,-0.0487999990582466,-0.4900000095367431,0.8050000071525574,-0.0874999985098838
0.34530635838150303,-0.0744199976325035,-0.9945439696311952,-0.0485559999942779,-0.4550000131130218,0.7350000143051147,-0.0874999985098838
0.36561849710982675,-0.0739319995045661,-0.9960079789161682,-0.0485559999942779,-0.4724999964237213,0.7524999976158142,-0.0350000001490116
0.38593063583815046,-0.0753960013389587,-0.9947879910469056,-0.0490439981222152,-0.4550000131130218,0.7350000143051147,-0.0175000000745058
0.4062427745664742,-0.0732000023126602,-0.9947879910469056,-0.0485559999942779,-0.3849999904632568,0.6650000214576721,-0.0350000001490116
0.4265549132947979,-0.0746639966964721,-0.995519995689392,-0.0478239990770816,-0.4375,0.5950000286102295,0.0175000000745058
0.4468670520231216,-0.0746639966964721,-0.9957639575004578,-0.0483120009303092,-0.332500010728836,0.4900000095367431,-0.0350000001490116
0.4671791907514453,-0.0749079957604408,-0.9952759742736816,-0.0487999990582466,-0.3149999976158142,0.4900000095367431,-0.0350000001490116
0.48749132947976903,-0.0751519948244094,-0.9957639575004578,-0.0478239990770816,-0.3149999976158142,0.5425000190734863,-0.0525000020861625
0.5078034682080927,-0.0756400004029274,-0.995519995689392,-0.0495319999754428,-0.2450000047683715,0.4375,-0.0525000020861625
0.5281156069364165,-0.075883999466896,-0.9947879910469056,-0.0483120009303092,-0.2100000083446502,0.4025000035762787,-0.0874999985098838
0.5484277456647402,-0.0749079957604408,-0.9938119649887084,-0.047335997223854,-0.1400000005960464,0.4025000035762787,-0.0874999985098838
0.5687398843930639,-0.0744199976325035,-0.995519995689392,-0.047580000013113,-0.2275000065565109,0.2975000143051147,-0.0175000000745058
0.5890520231213876,-0.0751519948244094,-0.9960079789161682,-0.0497759990394115,-0.332500010728836,0.262499988079071,0.0175000000745058
0.6093641618497113,-0.0739319995045661,-0.9957639575004578,-0.0514839999377727,-0.3499999940395355,0.2975000143051147,0.0350000001490116
0.629676300578035,-0.0712479948997497,-0.9933239817619324,-0.0502640008926391,-0.262499988079071,0.2800000011920929,0.0350000001490116
0.6499884393063587,-0.071492001414299,-0.9952759742736816,-0.0514839999377727,-0.4200000166893005,0.2450000047683715,0.1050000041723251
0.6703005780346825,-0.0778359994292259,-1.0003999471664429,-0.0563639998435974,-0.5249999761581421,0.2450000047683715,0.1400000005960464
0.6906127167630062,-0.0793000012636184,-0.9943000078201294,-0.0527039989829063,-0.0175000000745058,0.1400000005960464,-0.0700000002980232
0.7109248554913299,-0.0736880004405975,-0.98990797996521,-0.0502640008926391,0.0350000001490116,0.2800000011920929,-0.2100000083446502
0.7312369942196536,-0.0690519958734512,-0.9928359985351562,-0.0478239990770816,-0.3149999976158142,0.2800000011920929,-0.0700000002980232
0.7515491329479773,-0.0719799995422363,-0.995519995689392,-0.0483120009303092,-0.5249999761581421,0.2975000143051147,0.0874999985098838
0.771861271676301,-0.0744199976325035,-0.995519995689392,-0.0502640008926391,-0.6474999785423279,0.1574999988079071,0.1574999988079071
0.7921734104046247,-0.0761279985308647,-0.9984479546546936,-0.0548999980092048,-0.6650000214576721,0.0525000020861625,0.2275000065565109
0.8124855491329485,-0.0732000023126602,-0.9957639575004578,-0.0544119998812675,-0.3149999976158142,0.0525000020861625,0.0874999985098838
0.8327976878612722,-0.0734440013766288,-0.9969840049743652,-0.0553879998624324,-0.2975000143051147,-0.0175000000745058,0.0700000002980232
0.8531098265895959,-0.0724679976701736,-0.9918599724769592,-0.0514839999377727,-0.262499988079071,-0.0175000000745058,-0.0175000000745058
0.8734219653179196,-0.0741759985685348,-0.9962520003318788,-0.052947998046875,-0.612500011920929,-0.0175000000745058,0.1225000023841857
0.8937341040462433,-0.0751519948244094,-0.9957639575004578,-0.0541680008172988,-0.5425000190734863,-0.0700000002980232,0.1400000005960464
0.914046242774567,-0.0736880004405975,-0.9935680031776428,-0.0536799989640712,-0.4200000166893005,-0.0700000002980232,0.1225000023841857
0.9343583815028907,-0.0741759985685348,-0.9945439696311952,-0.0561200007796287,-0.5774999856948853,-0.0350000001490116,0.1574999988079071
0.9546705202312145,-0.0736880004405975,-0.9947879910469056,-0.0563639998435974,-0.5950000286102295,0.0700000002980232,0.1574999988079071
0.9749826589595382,-0.0741759985685348,-0.9938119649887084,-0.0556319989264011,-0.5249999761581421,0.1400000005960464,0.1400000005960464
0.9952947976878619,-0.0734440013766288,-0.9952759742736816,-0.0556319989264011,-0.612500011920929,0.1400000005960464,0.1400000005960464
1.0156069364161855,-0.0724679976701736,-0.9960079789161682,-0.0561200007796287,-0.6825000047683716,0.2800000011920929,0.1400000005960464
1.035919075144509,-0.0734440013766288,-0.9967399835586548,-0.0583159998059272,-0.6474999785423279,0.4200000166893005,0.1400000005960464
1.0562312138728327,-0.0732000023126602,-0.9957639575004578,-0.057583998888731,-0.4724999964237213,0.5425000190734863,0.0874999985098838
1.0765433526011563,-0.0729559957981109,-0.9967399835586548,-0.0585599988698959,-0.4200000166893005,0.6474999785423279,0.0874999985098838
1.09685549132948,-0.0739319995045661,-0.9964959621429444,-0.0580720007419586,-0.3499999940395355,0.699999988079071,0.0175000000745058
1.1171676300578035,-0.0751519948244094,-0.9950319528579712,-0.0590479969978332,-0.2275000065565109,0.7699999809265137,-0.0350000001490116
1.137479768786127,-0.076615996658802,-0.9964959621429444,-0.0590479969978332,-0.262499988079071,0.8224999904632568,-0.0525000020861625
1.1577919075144507,-0.0768599957227706,-0.9952759742736816,-0.0585599988698959,-0.0525000020861625,0.9275000095367432,-0.1225000023841857
1.1781040462427743,-0.0773480013012886,-0.9950319528579712,-0.0592919997870922,-0.1050000041723251,0.9800000190734864,-0.1400000005960464
1.198416184971098,-0.0768599957227706,-0.9947879910469056,-0.0597799979150295,-0.0350000001490116,0.9800000190734864,-0.0874999985098838
1.2187283236994215,-0.0773480013012886,-0.9938119649887084,-0.0605119988322258,-0.0525000020861625,0.9800000190734864,-0.1050000041723251
1.2390404624277451,-0.0778359994292259,-0.9923479557037354,-0.0597799979150295,-0.0874999985098838,0.8924999833106995,-0.0700000002980232
1.2593526011560687,-0.0771040022373199,-0.9933239817619324,-0.0607559978961944,-0.1574999988079071,0.8400000333786011,0.0175000000745058
1.2796647398843923,-0.0771040022373199,-0.9943000078201294,-0.061243999749422,-0.1050000041723251,0.7350000143051147,0.0350000001490116
1.299976878612716,-0.0778359994292259,-0.9943000078201294,-0.0607559978961944,-0.2100000083446502,0.8050000071525574,0.0700000002980232
1.3202890173410395,-0.0773480013012886,-0.9928359985351562,-0.0597799979150295,-0.0525000020861625,0.8050000071525574,0.0525000020861625
1.3406011560693631,-0.0771040022373199,-0.9964959621429444,-0.0619760006666183,-0.2450000047683715,0.8575000166893005,0.0700000002980232
1.3609132947976867,-0.0771040022373199,-0.9947879910469056,-0.0609999969601631,-0.1050000041723251,0.875,0.0175000000745058
1.3812254335260103,-0.0780799984931945,-0.9943000078201294,-0.0607559978961944,-0.1924999952316284,0.8400000333786011,-0.0175000000745058
1.401537572254334,-0.0778359994292259,-0.9945439696311952,-0.0605119988322258,-0.2800000011920929,0.5950000286102295,-0.0175000000745058
1.4218497109826576,-0.0771040022373199,-0.9952759742736816,-0.0617319978773593,-0.2975000143051147,0.4025000035762787,0.0175000000745058
1.4421618497109812,-0.0761279985308647,-0.9950319528579712,-0.0609999969601631,-0.1924999952316284,0.2975000143051147,-0.0350000001490116
1.4624739884393048,-0.0749079957604408,-0.9945439696311952,-0.0602679997682571,-0.1400000005960464,0.2100000083446502,0.0175000000745058
1.4827861271676284,-0.0746639966964721,-0.9938119649887084,-0.0609999969601631,-0.1225000023841857,0.2100000083446502,0.0175000000745058
1.503098265895952,-0.075883999466896,-0.9952759742736816,-0.0607559978961944,-0.2800000011920929,0.2800000011920929,0.0175000000745058
1.5234104046242756,-0.0756400004029274,-0.9943000078201294,-0.061243999749422,-0.1400000005960464,0.332500010728836,-0.0175000000745058
1.5437225433525992,-0.076615996658802,-0.9947879910469056,-0.0605119988322258,-0.2800000011920929,0.4200000166893005,0.0525000020861625
1.5640346820809228,-0.0771040022373199,-0.9964959621429444,-0.0649039968848228,-0.2800000011920929,0.4200000166893005,0.0525000020861625
1.5843468208092464,-0.0753960013389587,-0.9938119649887084,-0.0619760006666183,0.0350000001490116,0.4200000166893005,-0.0175000000745058
1.60465895953757,-0.0768599957227706,-0.9921039938926696,-0.0605119988322258,-0.1574999988079071,0.3499999940395355,0.0175000000745058
1.6249710982658936,-0.0795440003275871,-0.995519995689392,-0.0649039968848228,-0.3849999904632568,0.3149999976158142,0.1574999988079071
1.6452832369942172,-0.0805199965834617,-0.998203992843628,-0.0653920024633407,-0.262499988079071,0.2100000083446502,0.1225000023841857
1.6655953757225408,-0.0775920003652572,-0.9918599724769592,-0.0624639987945556,0.0175000000745058,0.262499988079071,-0.0175000000745058
1.6859075144508644,-0.0744199976325035,-0.9923479557037354,-0.061243999749422,-0.1050000041723251,0.4375,-0.0350000001490116
1.706219653179188,-0.0744199976325035,-0.9928359985351562,-0.0617319978773593,-0.2800000011920929,0.5074999928474426,0.0350000001490116
1.7265317919075116,-0.0785679966211319,-0.993079960346222,-0.0619760006666183,-0.3499999940395355,0.3499999940395355,0.0350000001490116
1.7468439306358352,-0.0793000012636184,-0.9962520003318788,-0.0627079978585243,-0.4724999964237213,0.3149999976158142,0.0874999985098838
1.7671560693641588,-0.0795440003275871,-0.9962520003318788,-0.0649039968848228,-0.3849999904632568,0.2450000047683715,0.1225000023841857
1.7874682080924824,-0.076615996658802,-0.9952759742736816,-0.0644159987568855,-0.2100000083446502,0.1225000023841857,0.1749999970197677
1.807780346820806,-0.0780799984931945,-0.9935680031776428,-0.0629519969224929,-0.1225000023841857,-0.0350000001490116,0.0175000000745058
1.8280924855491296,-0.0778359994292259,-0.9918599724769592,-0.0627079978585243,-0.1574999988079071,0.0350000001490116,0.0175000000745058
1.8484046242774532,-0.0783239975571632,-0.9952759742736816,-0.0649039968848228,-0.4375,0.0350000001490116,0.0700000002980232
1.8687167630057768,-0.0788119956851005,-0.9957639575004578,-0.066611997783184,-0.3149999976158142,-0.0525000020861625,0.1050000041723251
1.8890289017341004,-0.0778359994292259,-0.9952759742736816,-0.0651479959487915,-0.262499988079071,0.1924999952316284,0.1574999988079071
1.909341040462424,-0.0780799984931945,-0.9933239817619324,-0.0656360015273094,-0.2275000065565109,0.332500010728836,0.1050000041723251
1.9296531791907476,-0.0775920003652572,-0.9913719892501832,-0.0646599978208541,-0.2275000065565109,0.4375,0.0874999985098838
1.9499653179190712,-0.0773480013012886,-0.9933239817619324,-0.0651479959487915,-0.3849999904632568,0.5249999761581421,0.1050000041723251
1.9702774566473948,-0.0783239975571632,-0.9947879910469056,-0.0653920024633407,-0.3675000071525574,0.612500011920929,0.1225000023841857
1.9905895953757184,-0.0790559947490692,-0.9945439696311952,-0.0649039968848228,-0.1924999952316284,0.5600000023841858,0.1050000041723251
2.010901734104042,-0.0793000012636184,-0.994055986404419,-0.0661239996552467,-0.1574999988079071,0.5425000190734863,0.0525000020861625
2.0312138728323657,-0.0805199965834617,-0.9938119649887084,-0.066611997783184,-0.1924999952316284,0.5600000023841858,0.0700000002980232
2.0515260115606893,-0.0790559947490692,-0.9921039938926696,-0.0653920024633407,-0.1749999970197677,0.4375,0.0874999985098838
2.071838150289013,-0.0795440003275871,-0.9938119649887084,-0.0668559968471527,-0.2975000143051147,0.4900000095367431,0.0700000002980232
2.0921502890173365,-0.0793000012636184,-0.9952759742736816,-0.0670999959111213,-0.2450000047683715,0.4900000095367431,0.0175000000745058
2.11246242774566,-0.0802759975194931,-0.9943000078201294,-0.0678320005536079,-0.1924999952316284,0.5249999761581421,0.0175000000745058
2.1327745664739837,-0.0812520012259483,-0.9928359985351562,-0.0678320005536079,-0.0874999985098838,0.5600000023841858,0.0350000001490116
2.1530867052023073,-0.0802759975194931,-0.9938119649887084,-0.0678320005536079,-0.1574999988079071,0.5249999761581421,0.0525000020861625
2.173398843930631,-0.0797879993915557,-0.994055986404419,-0.0683199986815452,-0.2100000083446502,0.5074999928474426,0.0350000001490116
2.1937109826589545,-0.0800319984555244,-0.9933239817619324,-0.06734399497509,-0.0874999985098838,0.5425000190734863,0.0175000000745058
2.214023121387278,-0.0800319984555244,-0.9947879910469056,-0.0683199986815452,-0.2800000011920929,0.5950000286102295,0.1050000041723251
2.2343352601156017,-0.0817399993538856,-0.9935680031776428,-0.06734399497509,-0.1749999970197677,0.5950000286102295,0.1050000041723251
2.2546473988439253,-0.0824719965457916,-0.9928359985351562,-0.0680759996175766,-0.1400000005960464,0.5600000023841858,0.0350000001490116
2.274959537572249,-0.0819839984178543,-0.9933239817619324,-0.0695400014519691,-0.1050000041723251,0.4900000095367431,0.0350000001490116
2.2952716763005725,-0.0805199965834617,-0.9933239817619324,-0.0685639977455139,-0.0874999985098838,0.4375,-0.0175000000745058
2.315583815028896,-0.0810080021619796,-0.9935680031776428,-0.0685639977455139,-0.1225000023841857,0.3149999976158142,0.0350000001490116
2.3358959537572197,-0.0817399993538856,-0.993079960346222,-0.0690519958734512,-0.1400000005960464,0.2275000065565109,0.0700000002980232
2.3562080924855433,-0.0814960002899169,-0.9928359985351562,-0.0695400014519691,-0.1225000023841857,0.2450000047683715,0.0350000001490116
2.376520231213867,-0.0800319984555244,-0.9938119649887084,-0.0705159977078437,-0.1749999970197677,0.3149999976158142,0.0525000020861625
2.3968323699421905,-0.0805199965834617,-0.9935680031776428,-0.0700279995799064,-0.1749999970197677,0.3849999904632568,0.0525000020861625
2.417144508670514,-0.0812520012259483,-0.9928359985351562,-0.0702719986438751,-0.1225000023841857,0.4200000166893005,-0.0350000001490116
2.4374566473988377,-0.0817399993538856,-0.9928359985351562,-0.0700279995799064,-0.0874999985098838,0.3499999940395355,-0.0350000001490116
2.4577687861271613,-0.0810080021619796,-0.993079960346222,-0.0692960023880004,-0.1574999988079071,0.3675000071525574,-0.0175000000745058
2.478080924855485,-0.0807639956474304,-0.9943000078201294,-0.0712479948997497,-0.0350000001490116,0.5600000023841858,-0.0175000000745058
2.4983930635838085,-0.0810080021619796,-0.9918599724769592,-0.0695400014519691,0.1050000041723251,0.4724999964237213,-0.0525000020861625
2.518705202312132,-0.0829599946737289,-0.994055986404419,-0.0724679976701736,-0.0350000001490116,0.3675000071525574,-0.0350000001490116
2.5390173410404557,-0.0812520012259483,-0.9938119649887084,-0.0697840005159378,0.0525000020861625,0.1924999952316284,-0.0874999985098838
2.5593294797687793,-0.0810080021619796,-0.9925919771194458,-0.0683199986815452,0.0525000020861625,0.1400000005960464,-0.0874999985098838
2.579641618497103,-0.0856439992785453,-0.995519995689392,-0.0744199976325035,0.0700000002980232,-0.1050000041723251,-0.0874999985098838
2.5999537572254265,-0.0822279974818229,-0.9891759753227234,-0.0695400014519691,0.3499999940395355,-0.1574999988079071,-0.2275000065565109
2.62026589595375,-0.0785679966211319,-0.9921039938926696,-0.0705159977078437,-0.0350000001490116,-0.1225000023841857,-0.1400000005960464
2.6405780346820737,-0.0780799984931945,-0.994055986404419,-0.0690519958734512,-0.1400000005960464,0.0175000000745058,-0.0874999985098838
2.6608901734103974,-0.0788119956851005,-0.9906399846076964,-0.0692960023880004,-0.0175000000745058,0.0525000020861625,-0.1050000041723251
2.681202312138721,-0.0795440003275871,-0.9945439696311952,-0.0705159977078437,-0.1225000023841857,0.1574999988079071,-0.0525000020861625
2.7015144508670446,-0.0817399993538856,-0.9945439696311952,-0.0732000023126602,0.2450000047683715,-0.0525000020861625,-0.0525000020861625
2.721826589595368,-0.0822279974818229,-0.9947879910469056,-0.0729559957981109,0.3499999940395355,-0.1574999988079071,-0.1050000041723251
2.7421387283236918,-0.0807639956474304,-0.9938119649887084,-0.0702719986438751,0.332500010728836,-0.0525000020861625,-0.1749999970197677
2.7624508670520154,-0.0802759975194931,-0.9896639585494996,-0.0697840005159378,0.4025000035762787,-0.1050000041723251,-0.2100000083446502
2.782763005780339,-0.0824719965457916,-0.995519995689392,-0.0736880004405975,0.1225000023841857,-0.1400000005960464,-0.0525000020861625
2.8030751445086626,-0.0822279974818229,-0.9943000078201294,-0.0729559957981109,0.5249999761581421,-0.1749999970197677,-0.1400000005960464
2.823387283236986,-0.0783239975571632,-0.9938119649887084,-0.0732000023126602,0.5950000286102295,-0.1400000005960464,-0.2100000083446502
2.84369942196531,-0.0793000012636184,-0.994055986404419,-0.0732000023126602,0.5600000023841858,0.1050000041723251,-0.1924999952316284
2.8640115606936334,-0.0812520012259483,-0.9952759742736816,-0.0736880004405975,0.6650000214576721,0.1749999970197677,-0.2275000065565109
2.884323699421957,-0.0822279974818229,-0.9935680031776428,-0.0724679976701736,0.7350000143051147,0.2800000011920929,-0.2275000065565109
2.9046358381502806,-0.0824719965457916,-0.9916160106658936,-0.0717360004782676,0.699999988079071,0.3149999976158142,-0.2975000143051147
2.924947976878604,-0.0802759975194931,-0.9933239817619324,-0.071492001414299,0.5074999928474426,0.3149999976158142,-0.332500010728836
2.945260115606928,-0.0817399993538856,-0.993079960346222,-0.071492001414299,0.5074999928474426,0.332500010728836,-0.2975000143051147
2.9655722543352514,-0.0805199965834617,-0.9935680031776428,-0.0710039958357811,0.5074999928474426,0.3849999904632568,-0.262499988079071
2.985884393063575,-0.0814960002899169,-0.9950319528579712,-0.0727119967341423,0.5950000286102295,0.262499988079071,-0.2975000143051147
3.0061965317918986,-0.0817399993538856,-0.9935680031776428,-0.0710039958357811,0.7175000309944153,0.2975000143051147,-0.3149999976158142
3.026508670520222,-0.0807639956474304,-0.9925919771194458,-0.0695400014519691,0.6299999952316284,0.332500010728836,-0.3499999940395355
3.046820809248546,-0.0802759975194931,-0.9938119649887084,-0.0688079968094825,0.5425000190734863,0.3499999940395355,-0.3499999940395355
3.0671329479768694,-0.0805199965834617,-0.9938119649887084,-0.0705159977078437,0.5600000023841858,0.3675000071525574,-0.3675000071525574
3.087445086705193,-0.0807639956474304,-0.9938119649887084,-0.0707599967718124,0.5950000286102295,0.4200000166893005,-0.3499999940395355
3.1077572254335166,-0.0807639956474304,-0.9947879910469056,-0.0690519958734512,0.6299999952316284,0.4200000166893005,-0.3499999940395355
3.1280693641618402,-0.0817399993538856,-0.9933239817619324,-0.0692960023880004,0.6825000047683716,0.4550000131130218,-0.4025000035762787
3.148381502890164,-0.0812520012259483,-0.994055986404419,-0.0688079968094825,0.6474999785423279,0.5249999761581421,-0.3849999904632568
3.1686936416184874,-0.0802759975194931,-0.9935680031776428,-0.0683199986815452,0.6650000214576721,0.5074999928474426,-0.332500010728836
3.189005780346811,-0.0805199965834617,-0.9945439696311952,-0.0680759996175766,0.6474999785423279,0.4550000131130218,-0.3149999976158142
3.2093179190751346,-0.0814960002899169,-0.993079960346222,-0.0685639977455139,0.6474999785423279,0.4025000035762787,-0.3499999940395355
3.2296300578034582,-0.0812520012259483,-0.994055986404419,-0.0668559968471527,0.6299999952316284,0.3675000071525574,-0.3849999904632568
3.249942196531782,-0.0819839984178543,-0.9933239817619324,-0.0668559968471527,0.612500011920929,0.262499988079071,-0.3675000071525574
3.2702543352601054,-0.0812520012259483,-0.9950319528579712,-0.0678320005536079,0.612500011920929,0.1050000041723251,-0.4025000035762787
3.290566473988429,-0.0812520012259483,-0.9935680031776428,-0.066611997783184,0.6299999952316284,0.0350000001490116,-0.4200000166893005
3.3108786127167527,-0.0790559947490692,-0.993079960346222,-0.0668559968471527,0.6650000214576721,-0.0350000001490116,-0.3675000071525574
3.3311907514450763,-0.0800319984555244,-0.9943000078201294,-0.0683199986815452,0.6825000047683716,-0.0350000001490116,-0.3675000071525574
3.3515028901734,-0.0795440003275871,-0.9938119649887084,-0.0675880014896392,0.7699999809265137,-0.0700000002980232,-0.3499999940395355
3.3718150289017235,-0.0785679966211319,-0.9950319528579712,-0.0663679987192154,0.699999988079071,-0.0525000020861625,-0.3499999940395355
3.392127167630047,-0.0795440003275871,-0.9950319528579712,-0.0668559968471527,0.6299999952316284,0.0175000000745058,-0.3499999940395355
3.4124393063583707,-0.0795440003275871,-0.9935680031776428,-0.0663679987192154,0.6825000047683716,-0.0350000001490116,-0.3675000071525574
3.4327514450866943,-0.0785679966211319,-0.9943000078201294,-0.0656360015273094,0.6299999952316284,0.0175000000745058,-0.3849999904632568
3.453063583815018,-0.0788119956851005,-0.9945439696311952,-0.066611997783184,0.612500011920929,-0.0175000000745058,-0.3675000071525574
3.4733757225433415,-0.0783239975571632,-0.9938119649887084,-0.0661239996552467,0.7524999976158142,-0.1050000041723251,-0.332500010728836
3.493687861271665,-0.0773480013012886,-0.9933239817619324,-0.0644159987568855,0.699999988079071,-0.0525000020861625,-0.2975000143051147
3.5139999999999887,-0.0783239975571632,-0.9950319528579712,-0.0639280006289482,0.4375,-0.0350000001490116,-0.2275000065565109
3.5343121387283123,-0.076615996658802,-0.9935680031776428,-0.0661239996552467,0.5950000286102295,-0.0874999985098838,-0.2800000011920929
3.554624277456636,-0.0773480013012886,-0.9943000078201294,-0.0649039968848228,0.5600000023841858,-0.0525000020861625,-0.3675000071525574
3.5749364161849595,-0.0775920003652572,-0.9947879910469056,-0.065880000591278,0.5249999761581421,-0.2100000083446502,-0.2275000065565109
3.595248554913283,-0.0817399993538856,-0.9979599714279176,-0.0690519958734512,0.5774999856948853,-0.262499988079071,-0.2275000065565109
3.6155606936416067,-0.0817399993538856,-0.9925919771194458,-0.0627079978585243,0.875,-0.332500010728836,-0.3675000071525574
3.6358728323699303,-0.0756400004029274,-0.9884439706802368,-0.0619760006666183,0.875,-0.1400000005960464,-0.4724999964237213
3.656184971098254,-0.0727119967341423,-0.9916160106658936,-0.0570959970355033,0.4550000131130218,-0.0350000001490116,-0.2975000143051147
3.6764971098265775,-0.0753960013389587,-0.9935680031776428,-0.0585599988698959,0.1574999988079071,-0.0525000020861625,-0.1924999952316284
3.696809248554901,-0.0773480013012886,-0.995519995689392,-0.0624639987945556,0.1574999988079071,-0.2100000083446502,-0.1574999988079071
3.7171213872832247,-0.0788119956851005,-0.9974719882011414,-0.0653920024633407,0.332500010728836,-0.1924999952316284,-0.1749999970197677
3.7374335260115483,-0.0761279985308647,-0.9957639575004578,-0.0639280006289482,0.612500011920929,-0.2275000065565109,-0.1749999970197677
3.757745664739872,-0.0775920003652572,-0.9960079789161682,-0.0641719996929168,0.612500011920929,-0.3675000071525574,-0.1574999988079071
3.7780578034681955,-0.0775920003652572,-0.9945439696311952,-0.0641719996929168,0.5950000286102295,-0.4550000131130218,-0.1924999952316284
3.798369942196519,-0.0753960013389587,-0.9925919771194458,-0.0631959959864616,0.6299999952316284,-0.3849999904632568,-0.2975000143051147
3.8186820809248427,-0.075883999466896,-0.9918599724769592,-0.0609999969601631,0.5249999761581421,-0.3149999976158142,-0.262499988079071
3.8389942196531663,-0.076615996658802,-0.9938119649887084,-0.0634399950504303,0.2800000011920929,-0.4200000166893005,-0.1400000005960464
3.85930635838149,-0.0790559947490692,-0.9943000078201294,-0.0624639987945556,0.4025000035762787,-0.4025000035762787,-0.1225000023841857
3.8796184971098135,-0.0780799984931945,-0.9933239817619324,-0.0636840015649795,0.4200000166893005,-0.3675000071525574,-0.1225000023841857
3.899930635838137,-0.076615996658802,-0.9933239817619324,-0.0634399950504303,0.4025000035762787,-0.2975000143051147,-0.1749999970197677
3.9202427745664608,-0.0768599957227706,-0.9935680031776428,-0.0619760006666183,0.3149999976158142,-0.2800000011920929,-0.1400000005960464
3.9405549132947844,-0.0753960013389587,-0.9938119649887084,-0.062219999730587,0.1225000023841857,-0.1924999952316284,-0.0874999985098838
3.960867052023108,-0.0768599957227706,-0.9957639575004578,-0.0627079978585243,0.0525000020861625,-0.0525000020861625,-0.0525000020861625
3.9811791907514316,-0.0761279985308647,-0.9933239817619324,-0.0624639987945556,0.2450000047683715,-0.0175000000745058,-0.1050000041723251
4.001491329479755,-0.0763719975948333,-0.9935680031776428,-0.061243999749422,0.1749999970197677,0.0874999985098838,-0.1050000041723251
4.021803468208079,-0.075883999466896,-0.9952759742736816,-0.0619760006666183,0.1574999988079071,0.1924999952316284,-0.0874999985098838
4.042115606936402,-0.0780799984931945,-0.9962520003318788,-0.0631959959864616,0.2800000011920929,0.2800000011920929,-0.0525000020861625
4.062427745664726,-0.0788119956851005,-0.9950319528579712,-0.0629519969224929,0.4025000035762787,0.2450000047683715,-0.0874999985098838
4.08273988439305,-0.0778359994292259,-0.9935680031776428,-0.0629519969224929,0.3849999904632568,0.3149999976158142,-0.0874999985098838
4.103052023121373,-0.0761279985308647,-0.993079960346222,-0.0614879988133907,0.4025000035762787,0.332500010728836,-0.1574999988079071
4.123364161849697,-0.0771040022373199,-0.993079960346222,-0.0619760006666183,0.262499988079071,0.4550000131130218,-0.0874999985098838
4.14367630057802,-0.0783239975571632,-0.9933239817619324,-0.0631959959864616,0.1749999970197677,0.5249999761581421,-0.1050000041723251
4.163988439306344,-0.0775920003652572,-0.994055986404419,-0.0649039968848228,0.2100000083446502,0.5425000190734863,-0.1050000041723251
4.184300578034668,-0.0788119956851005,-0.9947879910469056,-0.0649039968848228,0.2450000047683715,0.5774999856948853,-0.0700000002980232
4.204612716762991,-0.0788119956851005,-0.994055986404419,-0.0629519969224929,0.2975000143051147,0.5249999761581421,-0.0874999985098838
4.224924855491315,-0.0793000012636184,-0.9935680031776428,-0.0641719996929168,0.2800000011920929,0.5600000023841858,-0.1050000041723251
4.245236994219638,-0.0790559947490692,-0.9943000078201294,-0.0641719996929168,0.2275000065565109,0.5074999928474426,-0.0874999985098838
4.265549132947962,-0.0793000012636184,-0.9928359985351562,-0.0636840015649795,0.2275000065565109,0.4375,-0.0874999985098838
4.285861271676286,-0.0793000012636184,-0.9935680031776428,-0.0636840015649795,0.1749999970197677,0.5074999928474426,-0.0525000020861625
4.306173410404609,-0.0802759975194931,-0.994055986404419,-0.0624639987945556,0.2450000047683715,0.3849999904632568,-0.0700000002980232
4.326485549132933,-0.0797879993915557,-0.9938119649887084,-0.0634399950504303,0.1225000023841857,0.332500010728836,-0.0525000020861625
4.346797687861256,-0.0810080021619796,-0.9938119649887084,-0.0641719996929168,0.1924999952316284,0.262499988079071,-0.0525000020861625
4.36710982658958,-0.0810080021619796,-0.9945439696311952,-0.0639280006289482,0.2450000047683715,0.1225000023841857,-0.0350000001490116
4.387421965317904,-0.0810080021619796,-0.9950319528579712,-0.0639280006289482,0.2975000143051147,-0.0874999985098838,-0.0350000001490116
4.407734104046227,-0.0793000012636184,-0.9943000078201294,-0.0627079978585243,0.3499999940395355,-0.0700000002980232,-0.0874999985098838
4.428046242774551,-0.0775920003652572,-0.9935680031776428,-0.0619760006666183,0.2975000143051147,-0.0700000002980232,-0.1050000041723251
4.448358381502874,-0.0790559947490692,-0.9952759742736816,-0.0636840015649795,0.1924999952316284,0.0175000000745058,-0.0525000020861625
4.468670520231198,-0.0790559947490692,-0.9947879910469056,-0.0629519969224929,0.2800000011920929,0.0700000002980232,-0.0350000001490116
4.488982658959522,-0.0793000012636184,-0.9928359985351562,-0.0619760006666183,0.3499999940395355,0.1225000023841857,-0.0874999985098838
4.509294797687845,-0.0795440003275871,-0.9952759742736816,-0.0629519969224929,0.2100000083446502,0.1225000023841857,0.0175000000745058
4.529606936416169,-0.0797879993915557,-0.9921039938926696,-0.0627079978585243,0.3675000071525574,0.2275000065565109,-0.0874999985098838
4.5499190751444925,-0.0783239975571632,-0.9928359985351562,-0.0617319978773593,0.2800000011920929,0.262499988079071,-0.0874999985098838
4.570231213872816,-0.0805199965834617,-0.9943000078201294,-0.0636840015649795,0.0350000001490116,0.2975000143051147,0.0525000020861625
4.59054335260114,-0.0844239965081214,-0.9925919771194458,-0.0641719996929168,0.4375,0.0525000020861625,-0.1050000041723251
4.610855491329463,-0.0793000012636184,-0.9896639585494996,-0.0641719996929168,0.332500010728836,0.262499988079071,-0.1749999970197677
4.631167630057787,-0.0773480013012886,-0.9933239817619324,-0.0605119988322258,0.0700000002980232,0.4025000035762787,-0.0874999985098838
4.6514797687861105,-0.0778359994292259,-0.9947879910469056,-0.0602679997682571,-0.0525000020861625,0.3849999904632568,-0.0525000020861625
4.671791907514434,-0.0822279974818229,-0.9947879910469056,-0.062219999730587,-0.0350000001490116,0.332500010728836,-0.0350000001490116
4.692104046242758,-0.0800319984555244,-0.9943000078201294,-0.0636840015649795,0.1924999952316284,0.1924999952316284,-0.0175000000745058
4.712416184971081,-0.0814960002899169,-0.9952759742736816,-0.0661239996552467,0.332500010728836,-0.0525000020861625,-0.0525000020861625
4.732728323699405,-0.0793000012636184,-0.9913719892501832,-0.0641719996929168,0.3499999940395355,-0.1050000041723251,-0.1574999988079071
4.7530404624277285,-0.0788119956851005,-0.993079960346222,-0.0629519969224929,0.1574999988079071,-0.0175000000745058,-0.1050000041723251
4.773352601156052,-0.0802759975194931,-0.9923479557037354,-0.0639280006289482,0.1400000005960464,-0.1050000041723251,-0.0874999985098838
4.793664739884376,-0.0783239975571632,-0.9957639575004578,-0.0644159987568855,-0.1050000041723251,0.0874999985098838,-0.0350000001490116
4.813976878612699,-0.0795440003275871,-0.9933239817619324,-0.0656360015273094,-0.0525000020861625,0.1050000041723251,-0.0700000002980232
4.834289017341023,-0.0800319984555244,-0.9928359985351562,-0.0634399950504303,0.0175000000745058,0.0874999985098838,-0.0350000001490116
4.8546011560693465,-0.0780799984931945,-0.9950319528579712,-0.0634399950504303,-0.1050000041723251,0.1400000005960464,0.0175000000745058
4.87491329479767,-0.0773480013012886,-0.9945439696311952,-0.0631959959864616,0.0175000000745058,0.1400000005960464,-0.0525000020861625
4.895225433525994,-0.0785679966211319,-0.9933239817619324,-0.0639280006289482,0.0350000001490116,0.332500010728836,-0.0350000001490116
4.915537572254317,-0.0790559947490692,-0.994055986404419,-0.0644159987568855,-0.1225000023841857,0.3149999976158142,0.0175000000745058
4.935849710982641,-0.0800319984555244,-0.9957639575004578,-0.0646599978208541,-0.1050000041723251,0.332500010728836,-0.0175000000745058
4.9561618497109645,-0.0802759975194931,-0.993079960346222,-0.0627079978585243,-0.0175000000745058,0.3499999940395355,-0.0525000020861625
4.976473988439288,-0.0797879993915557,-0.9921039938926696,-0.0629519969224929,-0.1050000041723251,0.3675000071525574,-0.0175000000745058
4.996786127167612,-0.0802759975194931,-0.993079960346222,-0.0646599978208541,-0.1225000023841857,0.3849999904632568,-0.0175000000745058
5.017098265895935,-0.0788119956851005,-0.993079960346222,-0.0636840015649795,-0.1924999952316284,0.4724999964237213,0.0350000001490116
5.037410404624259,-0.0797879993915557,-0.9935680031776428,-0.0641719996929168,-0.2275000065565109,0.4375,0.0350000001490116
5.0577225433525825,-0.0788119956851005,-0.993079960346222,-0.0631959959864616,-0.2100000083446502,0.3499999940395355,0.0525000020861625
5.078034682080906,-0.0793000012636184,-0.993079960346222,-0.0644159987568855,-0.262499988079071,0.4025000035762787,0.0525000020861625
5.09834682080923,-0.0802759975194931,-0.9928359985351562,-0.0631959959864616,-0.2975000143051147,0.3499999940395355,0.0525000020861625
5.118658959537553,-0.0793000012636184,-0.9938119649887084,-0.0641719996929168,-0.3499999940395355,0.3499999940395355,0.0700000002980232
5.138971098265877,-0.0790559947490692,-0.9945439696311952,-0.0641719996929168,-0.3149999976158142,0.3149999976158142,0.1050000041723251
5.1592832369942005,-0.0797879993915557,-0.990395963191986,-0.0631959959864616,-0.2450000047683715,0.3149999976158142,0.1225000023841857
5.179595375722524,-0.0783239975571632,-0.993079960346222,-0.0636840015649795,-0.5249999761581421,0.262499988079071,0.2100000083446502
5.199907514450848,-0.0805199965834617,-0.9938119649887084,-0.0646599978208541,-0.5074999928474426,0.262499988079071,0.2275000065565109
5.220219653179171,-0.0802759975194931,-0.9933239817619324,-0.0639280006289482,-0.5249999761581421,0.2450000047683715,0.2450000047683715
5.240531791907495,-0.0790559947490692,-0.9913719892501832,-0.062219999730587,-0.6299999952316284,0.1749999970197677,0.262499988079071
5.260843930635819,-0.0793000012636184,-0.9906399846076964,-0.0629519969224929,-0.6825000047683716,0.1225000023841857,0.262499988079071
5.281156069364142,-0.0780799984931945,-0.98990797996521,-0.0602679997682571,-0.7524999976158142,0.0350000001490116,0.2450000047683715
5.301468208092466,-0.0773480013012886,-0.98990797996521,-0.0585599988698959,-0.962499976158142,0.1400000005960464,0.332500010728836
5.321780346820789,-0.0753960013389587,-0.9921039938926696,-0.057583998888731,-1.225000023841858,0.3149999976158142,0.3675000071525574
5.342092485549113,-0.0741759985685348,-0.9916160106658936,-0.057583998888731,-1.2424999475479126,0.5425000190734863,0.2975000143051147
5.362404624277437,-0.0744199976325035,-0.9913719892501832,-0.0583159998059272,-1.399999976158142,0.8050000071525574,0.2800000011920929
5.38271676300576,-0.0773480013012886,-0.9911279678344728,-0.0600240007042884,-1.662500023841858,1.0325000286102295,0.3149999976158142
5.403028901734084,-0.0805199965834617,-0.9947879910469056,-0.0631959959864616,-1.9424999952316284,0.962499976158142,0.4200000166893005
5.423341040462407,-0.0810080021619796,-0.9943000078201294,-0.0651479959487915,-1.8725000619888303,0.8050000071525574,0.4550000131130218
5.443653179190731,-0.0790559947490692,-0.9921039938926696,-0.0627079978585243,-1.9075000286102293,0.6474999785423279,0.5774999856948853
5.463965317919055,-0.0805199965834617,-0.9935680031776428,-0.06734399497509,-2.2225000858306885,0.5249999761581421,0.8575000166893005
5.484277456647378,-0.0824719965457916,-0.9984479546546936,-0.0690519958734512,-2.2049999237060547,0.4550000131130218,0.9449999928474426
5.504589595375702,-0.0810080021619796,-0.990395963191986,-0.0636840015649795,-1.7324999570846558,0.6299999952316284,0.875
5.524901734104025,-0.0751519948244094,-0.9882000088691713,-0.0629519969224929,-1.7324999570846558,0.8924999833106995,0.8224999904632568
5.545213872832349,-0.0734440013766288,-0.9891759753227234,-0.0631959959864616,-2.1524999141693115,1.3650000095367432,0.9100000262260436
5.565526011560673,-0.0768599957227706,-0.9889319539070128,-0.0624639987945556,-2.502500057220459,1.5399999618530271,0.9275000095367432
5.585838150288996,-0.0822279974818229,-0.9896639585494996,-0.0634399950504303,-2.870000123977661,1.680000066757202,1.0499999523162842
5.60615028901732,-0.085887998342514,-0.98990797996521,-0.0656360015273094,-3.0625,1.4700000286102295,1.1549999713897705
5.626462427745643,-0.0846679955720901,-0.993079960346222,-0.0683199986815452,-3.220000028610229,1.1725000143051147,1.225000023841858
5.646774566473967,-0.0863759964704513,-0.9921039938926696,-0.071492001414299,-3.3600001335144043,0.875,1.4175000190734863
5.667086705202291,-0.085887998342514,-0.9894199967384338,-0.0729559957981109,-3.430000066757202,0.5774999856948853,1.4175000190734863
5.687398843930614,-0.0822279974818229,-0.986735999584198,-0.0707599967718124,-3.3600001335144043,0.4025000035762787,1.399999976158142
5.707710982658938,-0.0807639956474304,-0.9852719902992249,-0.0697840005159378,-3.762500047683716,0.4375,1.5225000381469729
5.728023121387261,-0.0810080021619796,-0.9886879920959472,-0.0732000023126602,-4.199999809265137,0.4724999964237213,1.680000066757202
5.748335260115585,-0.0819839984178543,-0.9906399846076964,-0.0753960013389587,-4.252500057220459,0.6299999952316284,1.75
5.768647398843909,-0.0814960002899169,-0.9852719902992249,-0.0736880004405975,-4.21750020980835,0.8224999904632568,1.6974999904632568
5.788959537572232,-0.0802759975194931,-0.9877119660377502,-0.0761279985308647,-4.690000057220459,1.0149999856948853,1.8200000524520876
5.809271676300556,-0.0844239965081214,-0.9862479567527772,-0.0773480013012886,-4.934999942779541,1.2599999904632568,1.9774999618530276
5.8295838150288795,-0.0846679955720901,-0.9855159521102904,-0.0771040022373199,-5.215000152587891,1.2949999570846558,1.9774999618530276
5.849895953757203,-0.0854000002145767,-0.9864919781684875,-0.0802759975194931,-5.985000133514404,1.3125,2.1700000762939453
5.870208092485527,-0.0846679955720901,-0.9869799613952636,-0.0805199965834617,-6.142499923706055,1.3300000429153442,2.327500104904175
5.89052023121385,-0.0839359983801841,-0.9840520024299622,-0.0814960002899169,-6.195000171661377,1.4350000619888306,2.345000028610229
5.910832369942174,-0.0836919993162155,-0.9838079810142516,-0.0836919993162155,-6.579999923706055,1.4874999523162842,2.3975000381469727
5.9311445086704975,-0.085156001150608,-0.9855159521102904,-0.0863759964704513,-6.982500076293945,1.5750000476837158,2.572499990463257
5.951456647398821,-0.0868639945983886,-0.9830759763717652,-0.08661999553442,-7.227499961853027,1.627500057220459,2.5199999809265137
5.971768786127145,-0.0868639945983886,-0.9830759763717652,-0.0888160020112991,-7.71750020980835,1.662500023841858,2.572499990463257
5.992080924855468,-0.0893040001392364,-0.9830759763717652,-0.0910120010375976,-8.172499656677246,1.6974999904632568,2.765000104904175
6.012393063583792,-0.0875959992408752,-0.9818559885025024,-0.0900359973311424,-8.4350004196167,1.680000066757202,2.799999952316284
6.0327052023121155,-0.0883279964327812,-0.9830759763717652,-0.0941839963197708,-8.890000343322754,1.7324999570846558,2.940000057220459
6.053017341040439,-0.0900359973311424,-0.9799039959907532,-0.0919879972934722,-9.204999923706056,1.8725000619888303,2.9749999046325684
6.073329479768763,-0.0883279964327812,-0.97843998670578,-0.0924759954214096,-9.65999984741211,1.9600000381469729,3.0274999141693115
6.093641618497086,-0.0919879972934722,-0.977952003479004,-0.0961359962821006,-10.079999923706056,2.012500047683716,3.255000114440918
6.11395375722541,-0.0912560001015663,-0.9799039959907532,-0.0978439971804618,-10.56999969482422,1.8200000524520876,3.377500057220459
6.1342658959537335,-0.0914999991655349,-0.981123983860016,-0.1017479971051216,-10.779999732971191,1.8025000095367432,3.569999933242798
6.154578034682057,-0.0927200019359588,-0.9801479578018188,-0.1036999970674514,-11.077500343322754,1.627500057220459,3.797500133514404
6.174890173410381,-0.0929640009999275,-0.981611967086792,-0.1083360016345977,-11.34000015258789,1.6100000143051147,4.007500171661377
6.195202312138704,-0.0922319963574409,-0.9823439717292786,-0.1112639978528022,-11.322500228881836,1.5399999618530271,4.112500190734863
6.215514450867028,-0.0936959981918335,-0.9828319549560548,-0.1127279996871948,-10.97249984741211,1.4874999523162842,4.199999809265137
6.2358265895953515,-0.0968680009245872,-0.9794159531593324,-0.114436000585556,-10.8149995803833,1.6449999809265137,4.112500190734863
6.256138728323675,-0.0939399972558021,-0.981611967086792,-0.1200480014085769,-10.657500267028809,1.680000066757202,3.9375
6.276450867051999,-0.0929640009999275,-0.9781959652900696,-0.119559995830059,-10.02750015258789,1.784999966621399,3.815000057220459
6.296763005780322,-0.0932080000638961,-0.9813680052757264,-0.1178519949316978,-9.65999984741211,1.75,3.5
6.317075144508646,-0.0949160009622573,-0.9801479578018188,-0.1171199977397918,-8.907500267028809,1.680000066757202,3.150000095367432
6.3373872832369695,-0.0919879972934722,-0.9757559895515442,-0.1161440014839172,-8.4350004196167,1.4350000619888306,2.8350000381469727
6.357699421965293,-0.0963799953460693,-0.9684360027313232,-0.1115079969167709,-7.769999980926514,1.1725000143051147,2.5374999046325684
6.378011560693617,-0.0927200019359588,-0.9662399888038636,-0.1134599968791008,-7.769999980926514,0.8224999904632568,2.240000009536743
6.39832369942194,-0.0832040011882782,-0.9647759795188904,-0.1083360016345977,-7.262499809265137,0.7524999976158142,1.995000004768372
6.418635838150264,-0.0780799984931945,-0.9730719923973083,-0.1083360016345977,-6.965000152587891,0.699999988079071,1.837499976158142
6.4389479768785876,-0.0819839984178543,-0.975268006324768,-0.0983319953083992,-6.40500020980835,0.699999988079071,0.8050000071525574
6.459260115606911,-0.0768599957227706,-0.9999119639396667,-0.0975999981164932,-5.932499885559082,0.3849999904632568,-0.3149999976158142
6.479572254335235,-0.0712479948997497,-0.9891759753227234,-0.0975999981164932,-4.025000095367432,0.4025000035762787,0.4550000131130218
6.499884393063558,-0.0814960002899169,-0.96697199344635,-0.0993079990148544,-2.6600000858306885,0.0175000000745058,1.6449999809265137
6.520196531791882,-0.1000399962067604,-0.9435479640960692,-0.1107759997248649,-2.555000066757202,-0.7875000238418579,2.712500095367432
6.540508670520206,-0.1124840006232261,-0.9313479661941528,-0.1193159967660904,-3.6575000286102295,-1.9424999952316284,3.447499990463257
6.560820809248529,-0.104432001709938,-0.9191479682922364,-0.1178519949316978,-4.567500114440918,-3.237499952316284,3.3600001335144043
6.581132947976853,-0.1032119989395141,-0.9081679582595824,-0.0849120020866394,-4.96999979019165,-5.162499904632568,2.6424999237060547
6.601445086705176,-0.095891997218132,-0.9023119807243348,-0.0646599978208541,-5.40749979019165,-7.315000057220459,2.502500057220459
6.6217572254335,-0.0741759985685348,-0.8735199570655823,-0.0234239995479583,-3.954999923706055,-9.239999771118164,4.112500190734863
6.642069364161824,-0.0222040005028247,-0.8613199591636658,0.0412359982728958,-5.512499809265137,-11.84749984741211,7.735000133514404
6.662381502890147,-0.0268399994820356,-0.9086560010910034,0.0287919994443655,-10.762499809265137,-14.350000381469728,10.167500495910645
6.682693641618471,-0.0129319997504353,-0.8996279835700989,-0.003171999938786,-11.462499618530272,-16.537500381469727,9.397500038146973
6.703005780346794,0.0124439997598528,-0.908411979675293,0.0192760005593299,-9.5024995803833,-14.822500228881836,9.782500267028809
6.723317919075118,-0.013663999736309,-0.8732759952545166,-0.0319640003144741,-3.692500114440918,-14.542500495910645,6.125
6.743630057803442,-0.1039439961314201,-0.8764479756355286,-0.114436000585556,10.079999923706056,-13.19499969482422,1.6974999904632568
6.763942196531765,-0.0790559947490692,-0.7786039710044861,-0.1110199987888336,17.079999923706055,-12.18000030517578,1.924999952316284
6.784254335260089,-0.0356239974498748,-0.7661600112915039,-0.157379999756813,16.292499542236328,-10.5,0.5950000286102295
6.804566473988412,-0.0265959985554218,-0.7410280108451843,-0.08661999553442,20.14249992370605,-11.00749969482422,-3.325000047683716
6.824878612716736,-0.0451399981975555,-0.6475759744644165,-0.0187879987061023,23.22249984741211,-18.707500457763672,-3.7100000381469727
6.84519075144506,-0.1356640011072158,-0.5763279795646667,-0.0875959992408752,17.832500457763672,-30.25749969482422,1.5399999618530271
6.865502890173383,-0.1647000014781952,-0.517524003982544,-0.1339560002088546,10.657500267028809,-36.977500915527344,5.267499923706055
6.885815028901707,-0.1446920037269592,-0.4814119935035705,-0.2015440016984939,1.8725000619888303,-37.59000015258789,8.329999923706055
6.90612716763003,-0.1141919940710067,-0.4714079797267914,-0.2249680012464523,-8.260000228881836,-37.397499084472656,13.335000038146973
6.926439306358354,-0.1129719987511634,-0.4640879929065704,-0.2064239978790283,-17.237499237060547,-36.01499938964844,17.622499465942383
6.946751445086678,-0.1595759987831115,-0.4311479926109314,-0.2020319998264312,-26.63500022888184,-31.692501068115234,22.9950008392334
6.967063583815001,-0.2293599992990493,-0.4384679794311523,-0.2566879987716675,-39.147499084472656,-28.612499237060547,27.33500099182129
6.987375722543325,-0.1681160032749176,-0.4960519969463348,-0.2486359924077987,-52.20249938964844,-32.147499084472656,28.90999984741211
7.007687861271648,-0.0380639992654323,-0.614147961139679,-0.3008520007133484,-68.40750122070312,-34.842498779296875,33.3025016784668
7.027999999999972,-0.0070759998634457,-0.8132519721984863,-0.4348079860210418,-84.1050033569336,-29.76749992370605,40.442501068115234
7.048312138728296,-0.4357839822769165,-0.973315954208374,-0.5485119819641113,-97.70249938964844,-3.255000114440918,54.09249877929688
7.068624277456619,-0.3572160005569458,-1.0208959579467771,-0.5658360123634338,-110.25,3.009999990463257,57.522499084472656
7.088936416184943,-0.3079279959201813,-1.15094792842865,-0.6812480092048645,-137.1999969482422,10.9375,73.32499694824219
7.1092485549132665,-0.4255359768867492,-1.3166239261627195,-0.6907640099525452,-159.0050048828125,18.39249992370605,88.51499938964844
7.12956069364159,-0.5856000185012817,-1.5140199661254885,-0.7725039720535278,-173.9324951171875,27.59749984741211,105.73500061035156
7.149872832369914,-0.522159993648529,-1.7097079753875732,-0.9518439769744872,-196.1925048828125,37.6775016784668,116.39250183105467
7.170184971098237,-0.7720159888267517,-1.979327917098999,-0.826915979385376,-210.7350006103516,43.907501220703125,106.68000030517578
7.190497109826561,-0.8012959957122803,-1.849031925201416,-0.2864559888839721,-199.5874938964844,20.790000915527344,102.4800033569336
7.2108092485548845,-0.3703919947147369,-1.4215439558029177,0.0161039996892213,-184.6074981689453,-7.840000152587891,111.17749786376952
7.231121387283208,-0.0102479998022317,-1.0260199308395386,0.152988001704216,-185.3600006103516,-31.342500686645508,128.30999755859375
7.251433526011532,-0.0436760000884532,-0.7376120090484619,0.1654319912195205,-197.19000244140625,-48.772499084472656,133.15750122070312
7.271745664739855,-0.2710839807987213,-0.4667719900608063,0.056607998907566,-196.94500732421875,-64.10250091552734,123.4800033569336
7.292057803468179,-0.3740519881248474,-0.224723994731903,-0.4570119976997375,-187.35499572753903,-52.255001068115234,120.4875030517578
7.3123699421965025,-0.416263997554779,-0.013663999736309,-0.6570919752120972,-148.87249755859375,-40.21500015258789,118.3000030517578
7.332682080924826,-0.5475360155105591,0.1510359942913055,-0.868395984172821,-121.32749938964844,-60.21749877929688,111.5625
7.35299421965315,-0.8583920001983643,0.1564040035009384,-0.7873879671096802,-112.03500366210938,-86.2750015258789,105.55999755859376
7.373306358381473,-0.9882000088691713,0.124439999461174,-0.748591959476471,-91.68250274658205,-101.11499786376952,100.55500030517578
7.393618497109797,-0.9884439706802368,0.1688479930162429,-0.8984079957008362,-61.75749969482422,-100.85250091552734,104.10749816894533
7.4139306358381205,-0.7742120027542114,0.5194759964942932,-0.7471280097961426,-34.404998779296875,-108.77999877929688,120.73249816894533
7.434242774566444,-0.6121959686279297,0.4462759792804718,-0.7141879796981812,-61.51250076293945,-110.70500183105467,144.6374969482422
7.454554913294768,-0.6014599800109863,-0.095160000026226,-0.7544479966163635,-68.42500305175781,-100.66000366210938,145.52999877929688
7.474867052023091,-0.7976359724998474,0.1542080044746399,-0.7805559635162354,-5.53000020980835,-95.12999725341795,124.11000061035156
7.495179190751415,-1.1526559591293335,0.7280960083007812,-0.6341559886932373,17.342500686645508,-91.22750091552734,109.09500122070312
7.5154913294797385,-1.2861239910125732,0.9708759784698486,-0.6905199885368347,-23.729999542236328,-102.62000274658205,121.37999725341795
7.535803468208062,-1.1770559549331665,0.6961320042610168,-0.9860039949417114,-53.3224983215332,-115.36000061035156,129.20249938964844
7.556115606936386,-1.232443928718567,0.7278519868850708,-0.8183760046958923,-80.37750244140625,-116.9000015258789,140.57749938964844
7.576427745664709,-1.4722959995269775,0.9535520076751708,-1.113860011100769,-88.18250274658203,-86.55500030517578,124.12750244140624
7.596739884393033,-1.3832359313964844,0.7954399585723877,-1.0035719871520996,-42.06999969482422,-62.369998931884766,60.28749847412109
7.6170520231213565,-1.1250839233398438,0.7761639952659607,-0.5448520183563232,11.30500030517578,-71.01499938964844,12.3725004196167
7.63736416184968,-0.9479399919509888,0.8605879545211792,-0.5145959854125977,41.807498931884766,-36.75,-26.54750061035156
7.657676300578004,-0.5292360186576843,0.4909279942512512,-0.4067479968070984,48.70249938964844,39.23500061035156,-84.12249755859375
7.677988439306327,-0.631227970123291,0.4909279942512512,-0.3257399797439575,60.375,60.970001220703125,-102.84750366210938
7.698300578034651,-0.8032479882240295,0.508251965045929,-0.2906039953231811,49.42000198364258,66.5875015258789,-101.98999786376952
7.718612716762975,-0.7544479966163635,0.5409479737281799,-0.3423320055007934,39.88249969482422,65.7125015258789,-85.68000030517578
7.738924855491298,-0.7861679792404175,0.5904799699783325,-0.3947919905185699,32.375,62.02000045776367,-65.01249694824219
7.759236994219622,-0.8815720081329346,0.4801920056343078,-0.4106519818305969,5.389999866485596,47.28499984741211,-49.61249923706055
7.779549132947945,-0.8381400108337402,0.3982079923152923,-0.3435519933700561,-9.467499732971191,27.982500076293945,-43.41749954223633
7.799861271676269,-0.7695760130882263,0.2908479869365692,-0.2898719906806946,-8.855000495910645,9.274999618530272,-41.22999954223633
7.820173410404593,-0.7285839915275574,0.4004040062427521,-0.2864559888839721,22.08500099182129,-7.070000171661377,-35.875
7.840485549132916,-0.6792960166931152,0.4609159827232361,-0.5529040098190308,33.407501220703125,-20.57999992370605,-31.71000099182129
7.86079768786124,-0.7278519868850708,0.2788919806480407,-0.4377360045909881,-8.1899995803833,-35.29750061035156,-27.8075008392334
7.881109826589563,-0.6829559803009033,-0.2317999899387359,-0.2561999857425689,-72.06500244140625,-37.55500030517578,-10.885000228881836
7.901421965317887,-0.6029239892959595,-0.1847079992294311,-0.2527839839458465,-43.13750076293945,-18.5674991607666,-12.897500038146973
7.921734104046211,-0.6497719883918762,-0.1022359952330589,-0.3540439903736114,-38.8849983215332,-5.144999980926514,-15.994999885559082
7.942046242774534,-0.7903159856796265,0.1410319954156875,-0.5275279879570007,-22.17250061035156,10.832500457763672,-4.025000095367432
7.962358381502858,-1.0438319444656372,0.1661639958620071,-0.5836479663848877,-17.290000915527344,22.575000762939453,13.475000381469728
7.982670520231181,-1.0570080280303955,-0.0456280000507831,-0.6073160171508789,-20.5625,16.975000381469727,11.44499969482422
8.002982658959505,-1.0391960144042969,0.1812919974327087,-0.6275680065155029,2.887500047683716,19.40749931335449,4.445000171661377
8.023294797687829,-1.010892033576965,0.1598199903964996,-0.6319599747657776,2.852499961853028,13.63249969482422,-4.952499866485596
8.043606936416152,-0.9418399930000304,0.0588039979338645,-0.5931639671325684,2.2049999237060547,7.875,-13.772500038146973
8.063919075144476,-0.9145119786262512,0.0793000012636184,-0.5677880048751831,6.824999809265137,3.009999990463257,-11.0600004196167
8.0842312138728,-0.8657119870185852,0.1368840038776397,-0.5448520183563232,6.615000247955322,-2.3975000381469727,-5.704999923706055
8.104543352601123,-0.8327719569206238,0.1905639916658401,-0.5167919993400574,1.9774999618530276,-7.262499809265137,-0.1749999970197677
8.124855491329447,-0.798367977142334,0.0871080011129379,-0.4706760048866272,-5.355000019073486,-10.675000190734863,3.150000095367432
8.14516763005777,-0.8039799928665161,-0.0724679976701736,-0.4313919842243194,-3.1675000190734863,-7.262499809265137,-2.3975000381469727
8.165479768786094,-0.8103240132331848,0.0375759974122047,-0.427731990814209,6.387499809265137,-6.877500057220459,-3.867500066757202
8.185791907514417,-0.8210600018501282,0.1581119894981384,-0.4484719932079315,7.735000133514404,-3.569999933242798,-1.3125
8.206104046242741,-0.8232559561729431,0.1261480003595352,-0.4318799972534179,0.699999988079071,-2.747499942779541,0.3499999940395355
8.226416184971065,-0.8215479850769043,0.1371279954910278,-0.4574999809265136,-2.694999933242798,-1.5399999618530271,3.3600001335144043
8.246728323699388,-0.8376519680023193,0.1266359984874725,-0.4738479852676391,-3.7100000381469727,-0.2975000143051147,4.707499980926514
8.267040462427712,-0.8866959810256958,0.1549399942159652,-0.4953199923038482,-1.1375000476837158,3.0450000762939453,3.5
8.287352601156035,-0.8988959789276123,0.1444479972124099,-0.5248439908027649,-0.2275000065565109,4.550000190734863,0.6650000214576721
8.307664739884359,-0.896943986415863,0.1200480014085769,-0.5231360197067261,1.0149999856948853,4.514999866485596,-3.0799999237060547
8.327976878612683,-0.8786439895629883,0.0941839963197708,-0.517035961151123,2.677500009536743,2.450000047683716,-5.775000095367432
8.348289017341006,-0.8598560094833374,0.0912560001015663,-0.4989799857139587,3.377500057220459,-0.2800000011920929,-5.897500038146973
8.36860115606933,-0.8581479787826538,0.0885719954967498,-0.4860479831695556,3.237499952316284,-2.4674999713897705,-4.287499904632568
8.388913294797653,-0.8610759973526001,0.0905239954590797,-0.472383975982666,2.765000104904175,-4.550000190734863,-2.2925000190734863
8.409225433525977,-0.8532679677009583,0.0993079990148544,-0.4599399864673614,1.837499976158142,-5.110000133514404,-0.7699999809265137
8.4295375722543,-0.8457039594650269,0.1046760007739067,-0.4574999809265136,0.9100000262260436,-3.4825000762939453,0.3499999940395355
8.449849710982624,-0.8452159762382507,0.10589599609375,-0.4628680050373077,0.5425000190734863,-0.8400000333786011,0.8924999833106995
8.470161849710948,-0.8442400097846985,0.109555996954441,-0.472383975982666,0.6299999952316284,1.5575000047683716,1.0149999856948853
8.490473988439271,-0.8483879566192627,0.1139479950070381,-0.4782399833202362,0.9449999928474426,2.9574999809265137,0.9100000262260436
8.510786127167595,-0.8547319769859314,0.1117519959807396,-0.4816559851169586,1.0850000381469729,3.0450000762939453,0.4550000131130218
8.531098265895919,-0.8586359620094299,0.105163998901844,-0.4831199944019317,1.225000023841858,2.0824999809265137,-0.0874999985098838
8.551410404624242,-0.8579039573669434,0.0990639999508857,-0.4838519990444183,1.0499999523162842,1.0674999952316284,-0.2100000083446502
8.571722543352566,-0.8535119891166687,0.0988200008869171,-0.4787279963493347,0.8400000333786011,0.3849999904632568,0.2975000143051147
8.59203468208089,-0.851315975189209,0.1012599989771843,-0.4767760038375854,0.2975000143051147,0.4900000095367431,1.1375000476837158
8.612346820809213,-0.8549759984016418,0.1083360016345977,-0.4784840047359466,-0.1749999970197677,1.3300000429153442,1.9600000381469729
8.632658959537537,-0.8588799834251404,0.1173639968037605,-0.4884879887104034,0.1225000023841857,2.362499952316284,2.327500104904175
8.65297109826586,-0.8652240037918091,0.1149239987134933,-0.4950760006904602,-0.0175000000745058,2.5199999809265137,1.7324999570846558
8.673283236994184,-0.8618080019950867,0.1198039948940277,-0.4972719848155975,0.5249999761581421,2.240000009536743,0.8224999904632568
8.693595375722508,-0.8608319759368896,0.1137039959430694,-0.4914159774780273,0.5774999856948853,1.3300000429153442,-0.1924999952316284
8.713907514450831,-0.856440007686615,0.1083360016345977,-0.4855599999427795,0.6825000047683716,0.6474999785423279,-0.699999988079071
8.734219653179155,-0.8530240058898926,0.1097999960184097,-0.4843399822711944,0.8050000071525574,0.2100000083446502,-0.7875000238418579
8.754531791907478,-0.8542439937591553,0.1078479960560798,-0.4865359961986542,0.5249999761581421,0.4900000095367431,-0.8400000333786011
8.774843930635802,-0.8547319769859314,0.1097999960184097,-0.4831199944019317,0.4200000166893005,0.4724999964237213,-0.7875000238418579
8.795156069364126,-0.852292001247406,0.1076039969921112,-0.4811680018901825,0.0175000000745058,0.7350000143051147,-0.6650000214576721
8.81546820809245,-0.8500959873199463,0.1073599979281425,-0.4823879897594452,-0.262499988079071,1.1375000476837158,-0.4900000095367431
8.835780346820773,-0.8500959873199463,0.1049199998378753,-0.4794600009918213,-0.3149999976158142,1.7324999570846558,-0.2800000011920929
8.856092485549096,-0.8530240058898926,0.1083360016345977,-0.4853159785270691,-0.1924999952316284,1.6974999904632568,-0.1749999970197677
8.87640462427742,-0.8542439937591553,0.1076039969921112,-0.4870239794254303,0.0175000000745058,1.0325000286102295,-0.2975000143051147
8.896716763005744,-0.8525359630584717,0.1080919951200485,-0.4833639860153198,0.1400000005960464,0.9975000023841858,-0.332500010728836
8.917028901734067,-0.8498519659042358,0.1066280007362365,-0.4816559851169586,0.1924999952316284,1.3825000524520874,-0.2100000083446502
8.93734104046239,-0.8493639826774597,0.110287994146347,-0.4855599999427795,0.0700000002980232,2.134999990463257,-0.0350000001490116
8.957653179190714,-0.8561959862709045,0.1090679988265037,-0.4921479821205139,-0.1574999988079071,1.680000066757202,-0.0350000001490116
8.977965317919038,-0.854487955570221,0.1100439950823783,-0.4928799867630005,-0.2450000047683715,1.6974999904632568,-0.0175000000745058
8.998277456647362,-0.855463981628418,0.109555996954441,-0.48921999335289,-0.262499988079071,1.4700000286102295,-0.0175000000745058
9.018589595375685,-0.8505839705467224,0.1105320006608963,-0.4919039905071258,-0.1050000041723251,1.399999976158142,-0.0700000002980232
9.038901734104009,-0.8547319769859314,0.1100439950823783,-0.493611991405487,0.1400000005960464,1.0499999523162842,-0.262499988079071
9.059213872832332,-0.854487955570221,0.1097999960184097,-0.4970279932022095,0.3675000071525574,0.8050000071525574,-0.3849999904632568
9.079526011560656,-0.8515599966049194,0.1085800006985664,-0.4916599988937378,0.3675000071525574,0.6650000214576721,-0.4724999964237213
9.09983815028898,-0.8476560115814209,0.1066280007362365,-0.4882439970970154,0.2800000011920929,0.5074999928474426,-0.5249999761581421
9.120150289017303,-0.8474119901657104,0.105163998901844,-0.4882439970970154,0.2100000083446502,0.4025000035762787,-0.3149999976158142
9.140462427745627,-0.8510719537734985,0.1066280007362365,-0.4938559830188751,0.2450000047683715,0.1400000005960464,0.0700000002980232
9.16077456647395,-0.8500959873199463,0.109555996954441,-0.4862920045852661,0.1400000005960464,0.1749999970197677,0.1924999952316284
9.181086705202274,-0.851315975189209,0.1100439950823783,-0.4887319803237915,0.4200000166893005,0.6299999952316284,0.1050000041723251
9.201398843930598,-0.8525359630584717,0.1129719987511634,-0.48921999335289,0.6299999952316284,0.7875000238418579,-0.1225000023841857
9.221710982658921,-0.8486319780349731,0.1100439950823783,-0.4870239794254303,0.5249999761581421,1.1200000047683716,-0.4200000166893005
9.242023121387245,-0.8493639826774597,0.109555996954441,-0.4877559840679168,0.1749999970197677,1.5399999618530271,-0.4200000166893005
9.262335260115568,-0.8500959873199463,0.1122400015592575,-0.4914159774780273,-0.2275000065565109,1.5575000047683716,-0.1749999970197677
9.282647398843892,-0.8515599966049194,0.1093119978904724,-0.4914159774780273,-0.6474999785423279,1.8550000190734863,-0.4025000035762787
9.302959537572216,-0.8503400087356567,0.1112639978528022,-0.4938559830188751,-0.7524999976158142,1.8025000095367432,-0.5249999761581421
9.32327167630054,-0.8496080040931702,0.1112639978528022,-0.4953199923038482,-0.7175000309944153,1.5225000381469729,-0.612500011920929
9.343583815028863,-0.8510719537734985,0.1093119978904724,-0.4945879876613617,-0.5950000286102295,1.277500033378601,-0.8224999904632568
9.363895953757186,-0.848143994808197,0.110287994146347,-0.4953199923038482,-0.5425000190734863,1.1200000047683716,-0.962499976158142
9.38420809248551,-0.8488759994506836,0.1071159988641738,-0.4962959885597229,-0.5074999928474426,1.1725000143051147,-1.0850000381469729
9.404520231213834,-0.8459479808807373,0.1080919951200485,-0.4916599988937378,-0.4375,0.9275000095367432,-0.9275000095367432
9.424832369942157,-0.8449719548225403,0.1083360016345977,-0.4931239783763885,-1.0674999952316284,1.1725000143051147,-0.6299999952316284
9.44514450867048,-0.8496080040931702,0.1073599979281425,-0.4941000044345855,-0.9100000262260436,1.3125,-0.6825000047683716
9.465456647398804,-0.848143994808197,0.1083360016345977,-0.4916599988937378,-0.8400000333786011,1.4874999523162842,-0.5600000023841858
9.485768786127128,-0.848143994808197,0.1112639978528022,-0.493611991405487,-1.0850000381469729,1.715000033378601,-0.4375
9.506080924855452,-0.8464359641075134,0.1100439950823783,-0.4938559830188751,-1.0499999523162842,1.9075000286102293,-0.5774999856948853
9.526393063583775,-0.8496080040931702,0.1105320006608963,-0.4958080053329468,-1.0674999952316284,2.1700000762939453,-0.5774999856948853
9.546705202312099,-0.8464359641075134,0.1112639978528022,-0.4994679987430572,-1.399999976158142,2.1700000762939453,-0.6299999952316284
9.567017341040422,-0.848143994808197,0.1093119978904724,-0.4980039894580841,-0.9975000023841858,2.362499952316284,-0.7875000238418579
9.587329479768746,-0.8476560115814209,0.1083360016345977,-0.497759997844696,-1.1024999618530271,2.275000095367432,-0.8400000333786011
9.60764161849707,-0.8710799813270569,0.1132159978151321,-0.4840959906578064,-1.1375000476837158,1.9600000381469729,-1.0325000286102295
9.627953757225393,-0.8191080093383789,0.1115079969167709,-0.5114240050315857,-1.1024999618530271,1.3650000095367432,-1.4874999523162842
9.648265895953717,-0.8454599976539612,0.1056519970297813,-0.5021519660949707,-1.3825000524520874,2.047499895095825,-1.2074999809265137
9.66857803468204,-0.843019962310791,0.1093119978904724,-0.5014199614524841,-1.6449999809265137,1.6974999904632568,-1.1200000047683716
9.688890173410364,-0.84716796875,0.1061399951577186,-0.4982479810714721,-2.047499895095825,1.75,-1.0149999856948853
9.709202312138688,-0.8464359641075134,0.1110199987888336,-0.5023959875106812,-1.1725000143051147,1.9600000381469729,-0.6474999785423279
9.729514450867011,-0.8474119901657104,0.1090679988265037,-0.5045920014381409,-1.1375000476837158,1.7324999570846558,-0.612500011920929
9.749826589595335,-0.8449719548225403,0.1093119978904724,-0.500931978225708,-1.1375000476837158,1.3825000524520874,-0.612500011920929
9.770138728323658,-0.8449719548225403,0.1078479960560798,-0.5014199614524841,-1.3125,0.962499976158142,-0.6299999952316284
9.790450867051982,-0.8435080051422119,0.1124840006232261,-0.5006880164146423,-1.277500033378601,1.1549999713897705,-0.5950000286102295
9.810763005780306,-0.843995988368988,0.1100439950823783,-0.5006880164146423,-1.1375000476837158,1.6100000143051147,-0.4900000095367431
9.83107514450863,-0.8452159762382507,0.1117519959807396,-0.5028839707374573,-0.9800000190734864,1.8725000619888303,-0.4550000131130218
9.851387283236953,-0.8435080051422119,0.1110199987888336,-0.5036159753799438,-1.0149999856948853,1.7324999570846558,-0.5074999928474426
9.871699421965276,-0.843019962310791,0.1112639978528022,-0.5014199614524841,-0.8924999833106995,1.7324999570846558,-0.612500011920929
9.8920115606936,-0.8415560126304626,0.1105320006608963,-0.5036159753799438,-0.7875000238418579,1.8550000190734863,-0.6299999952316284
9.912323699421924,-0.8422879576683044,0.1112639978528022,-0.5028839707374573,-0.8575000166893005,1.995000004768372,-0.5950000286102295
9.932635838150247,-0.843019962310791,0.1146799996495246,-0.5065439939498901,-1.5750000476837158,1.7675000429153442,-0.5249999761581421
9.952947976878571,-0.8557080030441284,0.1056519970297813,-0.5028839707374573,-1.3300000429153442,1.5399999618530271,-0.8400000333786011
9.973260115606895,-0.832040011882782,0.1129719987511634,-0.5094720125198364,-0.9975000023841858,1.1200000047683716,-0.8400000333786011
9.993572254335218,-0.8393599987030029,0.1112639978528022,-0.5055679678916931,-1.5399999618530271,1.3300000429153442,-0.7524999976158142
10.013884393063542,-0.8422879576683044,0.109555996954441,-0.5043479800224304,-0.9449999928474426,1.6974999904632568,-0.7699999809265137
10.034196531791865,-0.8413119912147522,0.1093119978904724,-0.5067880153656006,-0.962499976158142,1.8025000095367432,-0.4550000131130218
10.054508670520189,-0.8413119912147522,0.1119959950447082,-0.5075199604034424,-0.962499976158142,1.7324999570846558,-0.4200000166893005
10.074820809248513,-0.84716796875,0.1076039969921112,-0.5099599957466125,-1.190000057220459,1.5399999618530271,-0.5249999761581421
10.095132947976836,-0.838871955871582,0.1183400005102157,-0.5072759985923767,-1.6100000143051147,0.9100000262260436,-0.7699999809265137
10.11544508670516,-0.8417999744415283,0.1139479950070381,-0.5104479789733887,-0.7175000309944153,1.680000066757202,-0.9975000023841858
10.135757225433483,-0.8405799865722656,0.1227319985628128,-0.5036159753799438,-1.1200000047683716,1.3650000095367432,-1.1024999618530271
10.156069364161807,-0.8381400108337402,0.0963799953460693,-0.5087400078773499,-2.257499933242798,1.1375000476837158,-1.5575000047683716
10.17638150289013,-0.8371639847755432,0.1110199987888336,-0.5072759985923767,-1.3650000095367432,0.8050000071525574,-0.8050000071525574
10.196693641618454,-0.8417999744415283,0.1054079979658126,-0.5158159732818604,-0.4025000035762787,1.2599999904632568,-0.5425000190734863
10.217005780346778,-0.838871955871582,0.1115079969167709,-0.5104479789733887,-0.3849999904632568,0.3675000071525574,0.0350000001490116
10.237317919075101,-0.838871955871582,0.1117519959807396,-0.510204017162323,-0.3149999976158142,-0.1924999952316284,0.2450000047683715
10.257630057803425,-0.8408240079879761,0.1139479950070381,-0.510204017162323,0.1749999970197677,-0.262499988079071,0.2975000143051147
10.277942196531749,-0.8405799865722656,0.1134599968791008,-0.5104479789733887,0.4375,-0.0350000001490116,0.1574999988079071
10.298254335260072,-0.8403359651565552,0.1137039959430694,-0.508251965045929,0.6474999785423279,-0.3149999976158142,0.1400000005960464
10.318566473988396,-0.8400920033454895,0.1137039959430694,-0.5067880153656006,0.6825000047683716,-0.4375,0.1400000005960464
10.33887861271672,-0.8400920033454895,0.1132159978151321,-0.5067880153656006,0.5074999928474426,-0.1924999952316284,0.1400000005960464
10.359190751445043,-0.8400920033454895,0.1119959950447082,-0.5067880153656006,0.262499988079071,-0.0700000002980232,0.1225000023841857
10.379502890173367,-0.8413119912147522,0.1076039969921112,-0.5058119893074036,0.0350000001490116,-0.0700000002980232,0.2100000083446502
10.39981502890169,-0.8369199633598328,0.1141919940710067,-0.5094720125198364,-0.5774999856948853,-0.8575000166893005,0.5074999928474426
10.420127167630014,-0.8447279930114746,0.1139479950070381,-0.509227991104126,0.262499988079071,-0.0350000001490116,0.2100000083446502
10.440439306358337,-0.8427760004997253,0.114436000585556,-0.510204017162323,0.3499999940395355,-0.0700000002980232,0.2275000065565109
10.460751445086661,-0.8417999744415283,0.1141919940710067,-0.5070319771766663,0.4200000166893005,-0.0525000020861625,0.0874999985098838
10.481063583814985,-0.8386279940605164,0.1137039959430694,-0.5041040182113647,0.3675000071525574,-0.1400000005960464,-0.0525000020861625
10.501375722543308,-0.8405799865722656,0.1122400015592575,-0.5065439939498901,0.332500010728836,0.0874999985098838,-0.1574999988079071
10.521687861271632,-0.8417999744415283,0.1141919940710067,-0.5077639818191528,0.2975000143051147,0.332500010728836,-0.0700000002980232
10.541999999999955,-0.8393599987030029,0.1137039959430694,-0.5043479800224304,0.1574999988079071,0.3849999904632568,0.0175000000745058
10.562312138728279,-0.8383839726448059,0.1119959950447082,-0.5043479800224304,0.1400000005960464,0.4375,0.1400000005960464
10.582624277456603,-0.8410679697990417,0.1139479950070381,-0.505079984664917,0.0874999985098838,0.5774999856948853,0.262499988079071
10.602936416184926,-0.8447279930114746,0.1112639978528022,-0.5099599957466125,0.1225000023841857,0.5950000286102295,0.262499988079071
10.62324855491325,-0.8400920033454895,0.1168759986758232,-0.5087400078773499,0.7875000238418579,0.2100000083446502,0.262499988079071
10.643560693641573,-0.8422879576683044,0.1154119968414306,-0.5084959864616394,0.4025000035762787,0.3499999940395355,-0.0525000020861625
10.663872832369897,-0.8408240079879761,0.1146799996495246,-0.5075199604034424,0.5074999928474426,0.3499999940395355,-0.1225000023841857
10.68418497109822,-0.839847981929779,0.1137039959430694,-0.5077639818191528,0.4900000095367431,0.4375,-0.1574999988079071
10.704497109826544,-0.8393599987030029,0.1137039959430694,-0.5070319771766663,0.4900000095367431,0.5425000190734863,-0.1574999988079071
10.724809248554868,-0.8386279940605164,0.1139479950070381,-0.5077639818191528,0.3675000071525574,0.5774999856948853,-0.1924999952316284
10.745121387283191,-0.8408240079879761,0.1137039959430694,-0.5084959864616394,0.262499988079071,0.5774999856948853,-0.1400000005960464
10.765433526011515,-0.8405799865722656,0.1141919940710067,-0.5097159743309021,0.262499988079071,0.332500010728836,-0.1574999988079071
10.785745664739839,-0.8403359651565552,0.1146799996495246,-0.5087400078773499,0.2450000047683715,0.0700000002980232,-0.262499988079071
10.806057803468162,-0.8400920033454895,0.1139479950070381,-0.5077639818191528,0.2275000065565109,0.0700000002980232,-0.3149999976158142
10.826369942196486,-0.8415560126304626,0.1134599968791008,-0.5089839696884155,0.2975000143051147,0.0525000020861625,-0.3849999904632568
10.84668208092481,-0.8413119912147522,0.114436000585556,-0.508251965045929,0.3499999940395355,-0.0700000002980232,-0.2975000143051147
10.866994219653133,-0.8413119912147522,0.1129719987511634,-0.5072759985923767,0.332500010728836,-0.1050000041723251,-0.0874999985098838
10.887306358381457,-0.8420439958572388,0.1132159978151321,-0.5080080032348633,0.4550000131130218,-0.2450000047683715,-0.1050000041723251
10.90761849710978,-0.8415560126304626,0.1139479950070381,-0.5087400078773499,0.5600000023841858,-0.3675000071525574,-0.0350000001490116
10.927930635838104,-0.8422879576683044,0.1129719987511634,-0.5114240050315857,0.9275000095367432,-0.7350000143051147,-0.0175000000745058
10.948242774566427,-0.8444839715957642,0.1110199987888336,-0.5138639807701111,1.1725000143051147,-1.3300000429153442,0.0175000000745058
10.968554913294751,-0.84716796875,0.109555996954441,-0.5163040161132812,1.680000066757202,-2.345000028610229,0.1574999988079071
10.988867052023075,-0.8527799844741821,0.109555996954441,-0.5258200168609619,2.6600000858306885,-4.025000095367432,0.5249999761581421
11.009179190751398,-0.8576599955558777,0.1180959939956665,-0.532651960849762,4.059999942779541,-6.107500076293945,0.4375
11.029491329479722,-0.8669319748878479,0.1161440014839172,-0.5375319719314575,5.425000190734863,-7.875,-0.8050000071525574
11.049803468208045,-0.8774240016937256,0.1290760040283203,-0.5433880090713501,6.457499980926514,-10.90250015258789,-2.799999952316284
11.070115606936369,-0.8886479735374451,0.1276119947433471,-0.532651960849762,7.315000057220459,-11.760000228881836,-5.740000247955322
11.090427745664693,-0.884988009929657,0.1332239955663681,-0.5119119882583618,6.387499809265137,-12.932499885559082,-8.295000076293945
11.110739884393016,-0.8986519575119019,0.1686040014028549,-0.5145959854125977,3.6575000286102295,-12.670000076293944,-10.114999771118164
11.13105202312134,-0.9071919918060304,0.2210640013217926,-0.5194759964942932,-5.372499942779541,-13.15999984741211,-10.045000076293944
11.151364161849664,-0.8783999681472778,0.2496119886636734,-0.4982479810714721,-23.15250015258789,-11.077500343322754,-6.142499923706055
11.171676300577987,-0.8518039584159851,0.1983719915151596,-0.4718959927558899,-47.477500915527344,-2.450000047683716,3.0450000762939453
11.19198843930631,-0.8295999765396118,0.0795440003275871,-0.4721399843692779,-56.630001068115234,2.5199999809265137,6.510000228881836
11.212300578034634,-0.935983955860138,-0.0265959985554218,-0.5299679636955261,-16.764999389648438,11.550000190734863,-3.954999923706055
11.232612716762958,-0.9550159573554992,0.1969079971313476,-0.5302119851112366,11.375,16.344999313354492,-12.72249984741211
11.252924855491282,-0.9550159573554992,0.2454639971256256,-0.5585159659385681,11.112500190734863,24.184999465942383,-16.782499313354492
11.273236994219605,-0.9486719965934752,0.2147199958562851,-0.526308000087738,1.995000004768372,29.38249969482422,-17.604999542236328
11.293549132947929,-0.9342759847640992,0.1254159957170486,-0.5150839686393738,-4.042500019073486,31.692501068115234,-17.832500457763672
11.313861271676252,-0.8630279898643494,0.0934519991278648,-0.5226479768753052,-3.3600001335144043,31.88500022888184,-17.395000457763672
11.334173410404576,-0.8252080082893372,0.0495319999754428,-0.5394839644432068,-8.399999618530273,34.0724983215332,-15.24250030517578
11.3544855491329,-0.8134959936141968,0.0819839984178543,-0.5194759964942932,-4.882500171661377,40.09249877929688,-18.252500534057617
11.374797687861223,-0.8532679677009583,0.148839995265007,-0.5426560044288635,-0.4025000035762787,44.32749938964844,-18.200000762939453
11.395109826589547,-0.8710799813270569,0.1761679947376251,-0.5643720030784607,3.1675000190734863,48.42250061035156,-17.114999771118164
11.41542196531787,-0.8652240037918091,0.1459119915962219,-0.5424119830131531,0.8050000071525574,44.625,-16.65999984741211
11.435734104046194,-0.8635159730911255,0.1254159957170486,-0.5812079906463623,0.4550000131130218,41.40499877929688,-18.1825008392334
11.456046242774518,-0.8200839757919312,0.1261480003595352,-0.5514400005340576,2.0824999809265137,38.290000915527344,-20.59749984741211
11.476358381502841,-0.8093479871749878,0.1371279954910278,-0.5848680138587952,3.0274999141693115,37.50249862670898,-22.155000686645508
11.496670520231165,-0.7820199728012085,0.1383479982614517,-0.6017040014266968,5.039999961853027,37.95750045776367,-25.77750015258789
11.516982658959488,-0.7576199769973755,0.1237079948186874,-0.6214680075645447,4.987500190734863,36.20750045776367,-28.36750030517578
11.537294797687812,-0.7664039731025696,0.1015039980411529,-0.6853960156440735,3.150000095367432,36.24250030517578,-31.0625
11.557606936416136,-0.7632319927215576,0.0641719996929168,-0.7515199780464172,9.327500343322754,38.0099983215332,-35.61249923706055
11.57791907514446,-0.7786039710044861,0.105163998901844,-0.7588399648666382,18.32250022888184,37.1875,-40.494998931884766
11.598231213872783,-0.7446879744529724,0.1071159988641738,-0.8049559593200684,18.34000015258789,35.50749969482422,-43.01499938964844
11.618543352601106,-0.7383440136909485,0.0746639966964721,-0.8198399543762207,17.674999237060547,36.3125,-42.9275016784668
11.63885549132943,-0.749567985534668,0.0243999995291233,-0.8425319790840149,14.699999809265137,34.89500045776367,-40.16249847412109
11.659167630057754,-0.7429800033569336,-0.0082959998399019,-0.8203279972076416,13.755000114440918,31.95499992370605,-38.32500076293945
11.679479768786077,-0.7319999933242798,-0.0134199997410178,-0.8588799834251404,16.082500457763672,31.727500915527344,-35.40250015258789
11.6997919075144,-0.7149199843406677,-0.0068319998681545,-0.8130080103874207,18.165000915527344,29.5575008392334,-33.65250015258789
11.720104046242724,-0.7078439593315125,0.0151279997080564,-0.7798239588737488,17.27250099182129,26.354999542236328,-33.35499954223633
11.740416184971048,-0.7317559719085693,-0.0173240005970001,-0.7766519784927368,13.300000190734863,22.5049991607666,-30.729999542236328
11.760728323699372,-0.685151994228363,-0.0153719997033476,-0.7925119996070862,16.11750030517578,19.72249984741211,-28.752500534057617
11.781040462427695,-0.6583119630813599,-0.0734440013766288,-0.7517639994621277,15.417500495910645,15.907500267028809,-26.075000762939453
11.801352601156019,-0.6595320105552673,-0.0395279973745346,-0.7173599600791931,18.024999618530277,8.837499618530273,-25.67250061035156
11.821664739884342,-0.6014599800109863,-0.075883999466896,-0.6004840135574341,12.635000228881836,-2.065000057220459,-19.4424991607666
11.841976878612666,-0.5736439824104309,-0.1373720020055771,-0.5758399963378906,10.46500015258789,-4.724999904632568,-17.412500381469727
11.86228901734099,-0.5524159669876099,-0.1837320029735565,-0.6444039940834045,14.682499885559082,-8.067500114440918,-15.75
11.882601156069313,-0.530456006526947,-0.134443998336792,-0.6175639629364014,25.23500061035156,-9.170000076293944,-14.9975004196167
11.902913294797637,-0.5216720104217529,-0.0544119998812675,-0.587552011013031,30.450000762939453,-5.355000019073486,-14.489999771118164
11.92322543352596,-0.5511959791183472,-0.0375759974122047,-0.5292360186576843,25.637500762939453,-2.275000095367432,-13.037500381469728
11.943537572254284,-0.639523983001709,-0.1298079937696457,-0.5560759902000427,17.920000076293945,1.1725000143051147,-10.640000343322754
11.963849710982608,-0.6383039951324463,-0.1808039993047714,-0.583404004573822,20.63249969482422,1.924999952316284,-8.260000228881836
11.984161849710931,-0.6317160129547119,-0.1507920026779174,-0.5970680117607117,24.21999931335449,3.447499990463257,-4.760000228881836
12.004473988439255,-0.6309840083122253,-0.1578679978847503,-0.6261039972305298,22.225000381469727,6.579999923706055,-2.3975000381469727
12.024786127167578,-0.7129679918289185,-0.2030079960823059,-0.6707559823989868,20.3700008392334,9.397500038146973,-1.1375000476837158
12.045098265895902,-0.774944007396698,-0.1590880006551742,-0.7149199843406677,22.364999771118164,8.925000190734863,0.7875000238418579
12.065410404624226,-0.7890959978103638,-0.0861319974064827,-0.7400519847869873,21.80500030517578,6.002500057220459,4.8125
12.08572254335255,-0.8354560136795044,-0.0395279973745346,-0.6731959581375122,12.72249984741211,-0.7875000238418579,12.337499618530272
12.106034682080873,-0.8252080082893372,-0.1412760019302368,-0.7268759608268738,-3.430000066757202,-1.784999966621399,14.47249984741211
12.126346820809196,-0.8037359714508057,-0.1461559981107711,-0.6997919678688049,-9.800000190734863,-8.417500495910645,12.774999618530272
12.14665895953752,-0.7732359766960144,-0.1349319964647293,-0.6805160045623779,-16.100000381469727,-13.737500190734863,12.407500267028809
12.166971098265844,-0.6558719873428345,-0.1327359974384308,-0.668071985244751,-18.74250030517578,-20.3174991607666,13.020000457763672
12.187283236994167,-0.6780759692192078,-0.1712879985570907,-0.6117079854011536,-22.102500915527344,-24.27250099182129,13.947500228881836
12.20759537572249,-0.6588000059127808,-0.1944679915904998,-0.627079963684082,-23.239999771118164,-24.5,11.112500190734863
12.227907514450814,-0.6353759765625,-0.1790959984064102,-0.5848680138587952,-20.57999992370605,-22.225000381469727,6.965000152587891
12.248219653179138,-0.623420000076294,-0.1317600011825561,-0.5438759922981262,-13.125,-20.982500076293945,6.789999961853027
12.268531791907462,-0.5145959854125977,-0.152988001704216,-0.5502200126647949,-14.699999809265137,-21.174999237060547,4.130000114440918
12.288843930635785,-0.6424520015716553,-0.1739719957113266,-0.4838519990444183,-18.690000534057617,-19.232500076293945,5.792500019073486
12.309156069364109,-0.6588000059127808,-0.2039839923381805,-0.614147961139679,-13.63249969482422,-10.605000495910645,-2.555000066757202
12.329468208092432,-0.6517239809036255,-0.1647000014781952,-0.6129279732704163,-2.327500104904175,-3.132499933242798,-9.65999984741211
12.349780346820756,-0.6178079843521118,-0.1024799942970275,-0.5236240029335022,1.662500023841858,2.0999999046325684,-14.06999969482422
12.37009248554908,-0.6466000080108643,-0.1341999918222427,-0.5148400068283081,-3.3424999713897705,6.492499828338623,-19.82749938964844
12.390404624277403,-0.6490399837493896,-0.2010560035705566,-0.5341159701347351,-12.18000030517578,8.662500381469727,-26.670000076293945
12.410716763005727,-0.7005239725112915,-0.2400960028171539,-0.5838919878005981,-16.502500534057617,18.795000076293945,-34.6150016784668
12.43102890173405,-0.6785640120506287,-0.3608759939670563,-0.6195160150527954,-7.682499885559082,24.587499618530277,-39.63750076293945
12.451341040462374,-0.5946279764175415,-0.3930839896202087,-0.6575799584388733,-7.105000019073486,10.13249969482422,-32.74250030517578
12.471653179190698,-0.563152015209198,-0.4789719879627228,-0.7507879734039307,-6.737500190734863,2.327500104904175,-27.19499969482422
12.491965317919021,-0.5331400036811829,-0.5324079990386963,-0.8100799918174744,0.8924999833106995,0.6650000214576721,-26.18000030517578
12.512277456647345,-0.5006880164146423,-0.4962959885597229,-0.7834839820861816,14.40250015258789,5.372499942779541,-26.477500915527344
12.532589595375669,-0.5397279858589172,-0.4289519786834717,-0.7476159930229187,18.82999992370605,10.13249969482422,-27.19499969482422
12.552901734103992,-0.6170759797096252,-0.4187040030956268,-0.7398079633712769,14.980000495910645,13.300000190734863,-27.07250022888184
12.573213872832316,-0.6209799647331238,-0.4394440054893493,-0.7144320011138916,11.550000190734863,14.40250015258789,-28.122499465942383
12.59352601156064,-0.5858439803123474,-0.4467639923095703,-0.7439559698104858,9.852499961853027,18.200000762939453,-29.96000099182129
12.613838150288963,-0.5748639702796936,-0.4101639986038208,-0.7622559666633606,10.289999961853027,19.9325008392334,-28.94499969482422
12.634150289017287,-0.6087799668312073,-0.3701480031013489,-0.7441999912261963,13.545000076293944,22.207500457763672,-25.96999931335449
12.65446242774561,-0.6375719904899597,-0.3013399839401245,-0.7141879796981812,14.875,25.427499771118164,-23.012500762939453
12.674774566473934,-0.6273239850997925,-0.2525399923324585,-0.7258999943733215,11.182499885559082,28.787500381469727,-20.07250022888184
12.695086705202257,-0.603655993938446,-0.2466839998960495,-0.746396005153656,7.787499904632568,27.614999771118164,-15.4350004196167
12.715398843930581,-0.5592479705810547,-0.1781200021505355,-0.7349280118942261,9.449999809265137,24.482500076293945,-10.324999809265137
12.735710982658905,-0.5392400026321411,-0.1847079992294311,-0.7185800075531006,5.162499904632568,26.65250015258789,-5.074999809265137
12.756023121387228,-0.5341159701347351,-0.2571759819984436,-0.7544479966163635,-0.4900000095367431,30.57250022888184,-2.0999999046325684
12.776335260115552,-0.5272839665412903,-0.2461960017681121,-0.7651839852333069,2.012500047683716,29.75,-0.3499999940395355
12.796647398843875,-0.5287479758262634,-0.2396079897880554,-0.7510319948196411,3.622499942779541,31.342500686645508,-2.747499942779541
12.816959537572199,-0.5182560086250305,-0.2500999867916107,-0.7642079591751099,3.990000009536743,41.03749847412109,-8.3125
12.837271676300523,-0.497759997844696,-0.2561999857425689,-0.7888519763946533,6.737500190734863,49.97999954223633,-10.885000228881836
12.857583815028846,-0.5041040182113647,-0.2449759989976883,-0.8093479871749878,10.86750030517578,56.38500213623047,-8.732500076293945
12.87789595375717,-0.4843399822711944,-0.2281399965286255,-0.8615639805793762,14.279999732971191,56.94499969482422,-5.267499923706055
12.898208092485493,-0.447983980178833,-0.2134999930858612,-0.8727880120277405,16.4325008392334,57.907501220703125,-2.432500123977661
12.918520231213817,-0.4387120008468628,-0.2505879998207092,-0.892795979976654,15.34749984741211,62.685001373291016,2.747499942779541
12.93883236994214,-0.4174839854240417,-0.3030479848384857,-0.9362279772758484,16.012500762939453,68.44249725341797,6.247499942779541
12.959144508670464,-0.3542879819869995,-0.2913359999656677,-0.9501360058784484,21.01749992370605,78.78500366210938,7.4375
12.979456647398788,-0.2832840085029602,-0.285968005657196,-0.9703879952430724,25.1299991607666,93.1875,3.5350000858306885
12.999768786127111,-0.2820639908313751,-0.2444880008697509,-0.9979599714279176,28.052499771118164,103.73999786376952,-1.1725000143051147
13.020080924855435,-0.3040239810943603,-0.220331996679306,-1.0194319486618042,28.227500915527344,104.2125015258789,-0.0175000000745058
13.040393063583759,-0.3667320013046264,-0.1742160022258758,-1.0284600257873535,19.19750022888184,88.14749908447266,4.567500114440918
13.060705202312082,-0.3823480010032654,-0.2149640023708343,-0.9889319539070128,12.582500457763672,82.1624984741211,3.902499914169312
13.081017341040406,-0.3550199866294861,-0.2198439985513687,-0.9625799655914308,9.975000381469728,76.96500396728516,3.7799999713897705
13.10132947976873,-0.2964600026607513,-0.183243989944458,-0.95306396484375,9.170000076293944,70.68250274658203,5.162499904632568
13.121641618497053,-0.2083759903907776,-0.2510759830474853,-0.8996279835700989,4.847499847412109,60.79500198364258,6.579999923706055
13.141953757225377,-0.13468798995018,-0.2940199971199035,-0.876691997051239,7.122499942779541,57.540000915527344,5.6875
13.1622658959537,-0.0841799974441528,-0.2669360041618347,-0.8754720091819763,12.529999732971191,60.00749969482422,1.8725000619888303
13.182578034682024,-0.0641719996929168,-0.2830399870872497,-0.8759599924087524,14.052499771118164,60.584999084472656,-0.9449999928474426
13.202890173410347,-0.0273279994726181,-0.2979239821434021,-0.8349679708480835,16.799999237060547,60.74250030517578,-5.057499885559082
13.223202312138671,-0.0629519969224929,-0.3254959881305694,-0.8417999744415283,19.84499931335449,61.057498931884766,-10.045000076293944
13.243514450866995,-0.0797879993915557,-0.3708800077438354,-0.8283799886703491,25.95249938964844,58.99250030517578,-13.720000267028809
13.263826589595318,-0.0688079968094825,-0.4028439819812774,-0.8051999807357788,31.780000686645508,54.23250198364258,-14.752500534057615
13.284138728323642,-0.0914999991655349,-0.4496919810771942,-0.8071519732475281,35.314998626708984,44.02999877929688,-15.505000114440918
13.304450867051965,-0.1498159915208816,-0.5099599957466125,-0.8039799928665161,41.84249877929688,27.790000915527344,-14.105000495910645
13.324763005780289,-0.1649439930915832,-0.55485600233078,-0.8264279961585999,53.23500061035156,9.100000381469728,-13.335000038146973
13.345075144508613,-0.1468880027532577,-0.5194759964942932,-0.835211992263794,64.29499816894531,-3.184999942779541,-16.030000686645508
13.365387283236936,-0.1032119989395141,-0.5236240029335022,-0.8542439937591553,68.63500213623047,-11.899999618530272,-15.645000457763672
13.38569942196526,-0.0580720007419586,-0.5560759902000427,-0.8642479777336121,70.7699966430664,-17.290000915527344,-13.422499656677246
13.406011560693583,-0.0300120003521442,-0.606827974319458,-0.8915759921073914,71.8375015258789,-21.1924991607666,-10.13249969482422
13.426323699421907,-0.0241560004651546,-0.6380599737167358,-0.8830359578132629,74.41000366210938,-22.68000030517578,-7.0
13.44663583815023,-0.0346480011940002,-0.6590439677238464,-0.8713240027427673,74.2874984741211,-16.764999389648438,-4.742499828338623
13.466947976878554,-0.0385520011186599,-0.6731959581375122,-0.8552199602127075,72.13500213623047,-9.362500190734863,-2.362499952316284
13.487260115606878,-0.0392839983105659,-0.6400119662284851,-0.8100799918174744,70.5250015258789,4.462500095367432,-1.6100000143051147
13.507572254335201,-0.0802759975194931,-0.6453799605369568,-0.852292001247406,67.58499908447266,11.130000114440918,1.4700000286102295
13.527884393063525,-0.1066280007362365,-0.6326919794082642,-0.8383839726448059,62.720001220703125,9.327500343322754,5.372499942779541
13.548196531791849,-0.1310279965400695,-0.6375719904899597,-0.8410679697990417,57.15499877929688,3.569999933242798,8.645000457763672
13.568508670520172,-0.1110199987888336,-0.6031680107116699,-0.7827519774436951,54.810001373291016,-4.077499866485596,8.032500267028809
13.588820809248496,-0.0685639977455139,-0.5838919878005981,-0.7759199738502502,53.04249954223633,-10.482500076293944,4.042500019073486
13.60913294797682,-0.0480679981410503,-0.5331400036811829,-0.7732359766960144,53.28749847412109,-17.604999542236328,-1.0674999952316284
13.629445086705143,-0.0505079999566078,-0.4826319813728332,-0.7356599569320679,48.317501068115234,-14.157500267028809,-7.4375
13.649757225433467,-0.0600240007042884,-0.6165879964828491,-0.8056879639625549,39.130001068115234,-2.380000114440918,-10.412500381469728
13.67006936416179,-0.0753960013389587,-0.5843799710273743,-0.8461920022964478,43.81999969482422,-10.6225004196167,-8.067500114440918
13.690381502890114,-0.0775920003652572,-0.5041040182113647,-0.6692919731140137,35.36750030517578,-18.200000762939453,-2.572499990463257
13.710693641618438,-0.2049599885940551,-0.5163040161132812,-0.6868599653244019,14.105000495910645,-25.462499618530277,3.6050000190734863
13.731005780346761,-0.314516007900238,-0.5856000185012817,-0.8188639879226685,-4.147500038146973,-34.125,2.2049999237060547
13.751317919075085,-0.3333039879798889,-0.6885679960250854,-0.8622959852218628,-14.489999771118164,-48.09000015258789,1.9600000381469729
13.771630057803408,-0.177387997508049,-0.6448919773101807,-0.8086159825325012,-21.50749969482422,-66.67500305175781,5.635000228881836
13.791942196531732,-0.1434720009565353,-0.8330159783363342,-0.8525359630584717,-28.962499618530277,-61.28499984741211,-4.322500228881836
13.812254335260056,-0.2291159927845001,-0.8466799855232239,-0.8500959873199463,-15.557499885559082,-28.59499931335449,-17.377500534057617
13.83256647398838,-0.2654719948768616,-0.8474119901657104,-0.8991400003433228,-20.107500076293945,-28.979999542236328,-57.59249877929688
13.852878612716703,-0.2339959889650344,-0.8378959894180298,-0.9218319654464722,-12.1274995803833,-31.290000915527344,-51.09999847412109
13.873190751445026,-0.2837719917297363,-0.6936919689178467,-0.8659560084342957,-5.897500038146973,-27.52750015258789,-13.545000076293944
13.89350289017335,-0.1991039961576461,-0.6456239819526672,-0.8098359704017639,-9.99250030517578,-34.877498626708984,8.522500038146973
13.913815028901674,-0.1708000004291534,-0.664900004863739,-0.7764079570770264,-11.024999618530272,-30.04750061035156,21.787500381469727
13.934127167629997,-0.1139479950070381,-0.6456239819526672,-0.7644519805908203,-13.824999809265137,-24.622499465942383,26.0049991607666
13.95443930635832,-0.06734399497509,-0.6773439645767212,-0.6944239735603333,-12.145000457763672,-12.022500038146973,25.725000381469727
13.974751445086644,-0.152988001704216,-0.7405399680137634,-0.7054039835929871,-10.272500038146973,4.09499979019165,20.125
13.995063583814968,-0.2317999899387359,-0.8234999775886536,-0.7244359850883484,2.1524999141693115,13.352499961853027,13.720000267028809
14.015375722543292,-0.175924003124237,-0.8693720102310181,-0.7149199843406677,19.477500915527344,19.967500686645508,6.457499980926514
14.035687861271615,-0.0580720007419586,-0.9062159657478333,-0.6197599768638611,35.97999954223633,33.67000198364258,-1.8725000619888303
14.055999999999939,-0.006343999877572,-0.8966999650001526,-0.5426560044288635,45.1150016784668,45.220001220703125,-13.282500267028809
14.076312138728262,-0.047335997223854,-0.9232959747314452,-0.513375997543335,44.02999877929688,51.60750198364258,-27.26499938964844
14.096624277456586,-0.0927200019359588,-0.9969840049743652,-0.590723991394043,41.93000030517578,49.61249923706055,-32.567501068115234
14.11693641618491,-0.0614879988133907,-1.0311440229415894,-0.6268360018730164,44.20500183105469,35.33250045776367,-28.90999984741211
14.137248554913233,-0.0080519998446106,-1.054811954498291,-0.6204919815063477,42.17499923706055,27.5625,-24.53499984741211
14.157560693641557,-0.0175679996609687,-1.0682319402694702,-0.6214680075645447,37.64250183105469,30.309999465942383,-20.42250061035156
14.17787283236988,-0.0954039990901947,-1.0855560302734375,-0.5997520089149475,35.192501068115234,30.4325008392334,-15.557499885559082
14.198184971098204,-0.0861319974064827,-1.1048319339752195,-0.59853196144104,35.279998779296875,23.677499771118164,-11.357500076293944
14.218497109826528,-0.0761279985308647,-1.0975120067596436,-0.5956040024757385,41.720001220703125,19.02250099182129,-9.1875
14.238809248554851,-0.0719799995422363,-1.0452959537506104,-0.5421679615974426,46.7599983215332,12.197500228881836,-5.565000057220459
14.259121387283175,0.0002439999952912,-0.9474520087242126,-0.4267559945583343,30.607500076293945,10.220000267028809,2.2225000858306885
14.279433526011498,0.0219599995762109,-0.929152011871338,-0.4065040051937103,20.825000762939453,16.327499389648438,3.762500047683716
14.299745664739822,-0.020983999595046,-0.9672159552574158,-0.4262679815292358,13.96500015258789,23.69499969482422,2.712500095367432
14.320057803468146,-0.0407480001449584,-0.969655990600586,-0.4418839812278747,14.80500030517578,22.487499237060547,1.9774999618530276
14.34036994219647,-0.0065879998728632,-0.9472079873085022,-0.4589639902114868,18.602500915527344,15.4350004196167,4.077499866485596
14.360682080924793,0.0029279999434947,-0.8857199549674988,-0.4623799920082092,22.03249931335449,13.982500076293944,7.699999809265137
14.380994219653116,0.0041479999199509,-0.896943986415863,-0.4531079828739166,25.934999465942383,9.25749969482422,10.43000030517578
14.40130635838144,0.0087839998304843,-0.8591240048408508,-0.3884479999542236,29.34749984741211,9.922499656677246,10.167500495910645
14.421618497109764,-0.0051239999011158,-0.8537560105323792,-0.3872279822826385,25.00749969482422,7.875,10.1850004196167
14.441930635838087,-0.0121999997645616,-0.8896239995956421,-0.3742959797382355,22.76749992370605,2.432500123977661,9.100000381469728
14.46224277456641,0.0114679997786879,-0.9067040085792542,-0.3501400053501129,24.36000061035156,0.1400000005960464,6.422500133514404
14.482554913294734,0.0068319998681545,-0.8559519648551941,-0.3886919915676117,33.057498931884766,0.2275000065565109,5.670000076293945
14.502867052023058,0.009515999816358,-0.794219970703125,-0.3984519839286804,37.76499938964844,4.357500076293945,6.195000171661377
14.523179190751382,0.0051239999011158,-0.8461920022964478,-0.3720999956130981,32.3224983215332,10.587499618530272,7.630000114440918
14.543491329479705,-0.0187879987061023,-0.8869400024414062,-0.3579480051994324,31.727500915527344,15.505000114440918,8.942500114440918
14.563803468208029,-0.0351359993219375,-0.9018239974975586,-0.3411119878292084,32.63750076293945,18.40999984741211,8.452500343322754
14.584115606936352,-0.0483120009303092,-0.8781560063362122,-0.3474559783935547,35.80500030517578,18.30500030517578,7.769999980926514
14.604427745664676,-0.032940000295639,-0.843995988368988,-0.3457480072975158,39.025001525878906,17.2549991607666,8.295000076293945
14.624739884393,-0.0368440002202987,-0.831063985824585,-0.3257399797439575,40.057498931884766,14.140000343322754,9.852499961853027
14.645052023121323,-0.0841799974441528,-0.8127639889717102,-0.2879199981689453,38.97249984741211,8.242500305175781,11.164999961853027
14.665364161849647,-0.1183400005102157,-0.8217920064926147,-0.2837719917297363,35.77000045776367,1.3650000095367432,11.550000190734863
14.68567630057797,-0.061243999749422,-0.8286240100860596,-0.2766959965229034,34.42250061035156,-2.9749999046325684,11.287500381469728
14.705988439306294,-0.0002439999952912,-0.8337479829788208,-0.2801119983196258,34.439998626708984,-3.150000095367432,9.3100004196167
14.726300578034618,0.0480679981410503,-0.8339920043945312,-0.2862119972705841,36.17250061035156,-2.799999952316284,6.054999828338623
14.746612716762941,0.0517279990017414,-0.8293559551239014,-0.2949959933757782,38.02750015258789,-1.0149999856948853,2.1524999141693115
14.766924855491265,0.0495319999754428,-0.832040011882782,-0.2925559878349304,37.69499969482422,0.612500011920929,-2.012500047683716
14.787236994219588,0.0431879982352256,-0.8208159804344177,-0.2613239884376526,36.994998931884766,2.782500028610229,-5.110000133514404
14.807549132947912,0.0261080004274845,-0.7893399596214294,-0.2410719990730285,36.959999084472656,2.134999990463257,-7.315000057220459
14.827861271676236,-0.0036599999293684,-0.7720159888267517,-0.2286279946565628,37.15250015258789,-1.715000033378601,-8.399999618530273
14.84817341040456,-0.0180559996515512,-0.7546919584274292,-0.2264319956302642,36.81999969482422,-6.527500152587891,-8.399999618530273
14.868485549132883,-0.0148839997127652,-0.8093479871749878,-0.2405840009450912,30.100000381469727,-16.799999237060547,-4.987500190734863
14.888797687861206,0.0012199999764561,-0.8566839694976807,-0.2398519963026046,30.239999771118164,-21.087499618530277,-4.480000019073486
14.90910982658953,0.0141519997268915,-0.8898679614067078,-0.2235039919614792,32.20000076293945,-23.99250030517578,-3.954999923706055
14.929421965317854,0.0158599987626075,-0.9169519543647766,-0.2232600003480911,34.720001220703125,-25.427499771118164,-2.5374999046325684
14.949734104046177,0.0151279997080564,-0.9308599829673768,-0.234484001994133,37.5724983215332,-25.1825008392334,-0.8400000333786011
14.970046242774501,0.0078079998493194,-0.9259799718856812,-0.2518079876899719,41.63249969482422,-24.149999618530277,0.2100000083446502
14.990358381502825,0.0026839999482035,-0.9308599829673768,-0.2540040016174316,43.942501068115234,-20.649999618530277,0.3675000071525574
15.010670520231148,0.0087839998304843,-0.945743978023529,-0.2740119993686676,43.81999969482422,-13.579999923706056,-0.2450000047683715
15.030982658959472,0.0644159987568855,-0.9740479588508606,-0.2757200002670288,42.89250183105469,-3.7274999618530273,-1.924999952316284
15.051294797687795,0.0265959985554218,-1.0091840028762815,-0.3001199960708618,37.380001068115234,8.085000038146973,-4.65500020980835
15.071606936416119,-0.0139079997316002,-1.0728679895401,-0.224480003118515,29.81999969482422,19.75749969482422,-9.800000190734863
15.091919075144443,-0.0309880003333091,-0.9537959694862366,-0.0639280006289482,38.272499084472656,23.729999542236328,-13.440000534057615
15.112231213872766,-0.1464000046253204,-0.8115440011024475,-0.0966240018606185,34.5099983215332,16.22249984741211,-6.894999980926514
15.13254335260109,-0.2049599885940551,-0.972827970981598,-0.1690919995307922,16.520000457763672,11.672499656677246,-1.9075000286102293
15.152855491329413,-0.1666519939899444,-0.9999119639396667,-0.0924759954214096,24.9375,8.225000381469727,-4.042500019073486
15.173167630057737,-0.1317600011825561,-0.9088999629020692,-0.0346480011940002,27.71999931335449,5.775000095367432,-3.0274999141693115
15.19347976878606,-0.10589599609375,-0.9433040022850036,-0.047335997223854,18.059999465942383,4.952499866485596,-0.4550000131130218
15.213791907514384,-0.1097999960184097,-1.0289479494094849,-0.0451399981975555,15.295000076293944,6.264999866485596,0.6299999952316284
15.234104046242708,-0.0805199965834617,-1.0450519323349,-0.0307439994066953,20.299999237060547,7.840000152587891,-1.5399999618530271
15.254416184971031,-0.0251320004463195,-0.95306396484375,0.0036599999293684,25.6200008392334,9.012499809265137,-3.430000066757202
15.274728323699355,-0.0024399999529123,-0.9367159605026244,0.0278159994632005,17.56999969482422,11.77750015258789,-1.8550000190734863
15.295040462427679,-0.0412359982728958,-1.0052800178527832,0.0161039996892213,7.664999961853027,12.390000343322754,1.4175000190734863
15.315352601156002,-0.0448959991335868,-1.0538359880447388,0.0265959985554218,8.119999885559082,11.829999923706056,1.4524999856948853
15.335664739884326,-0.0439199991524219,-1.0531039237976074,0.0436760000884532,11.532500267028809,12.21500015258789,1.347499966621399
15.35597687861265,-0.0378200002014637,-1.032364010810852,0.0427000001072883,15.522500038146973,12.494999885559082,1.225000023841858
15.376289017340973,-0.0536799989640712,-0.9933239817619324,0.0326960012316703,18.707500457763672,11.077500343322754,1.0850000381469729
15.396601156069297,-0.0692960023880004,-0.9667279720306396,0.0370879992842674,19.075000762939453,9.782500267028809,1.225000023841858
15.41691329479762,-0.0810080021619796,-0.9650200009346008,0.0395279973745346,16.292499542236328,8.925000190734863,1.3650000095367432
15.437225433525944,-0.0856439992785453,-0.9511119723320008,0.0363559983670711,13.422499656677246,8.4350004196167,0.8575000166893005
15.457537572254267,-0.0814960002899169,-0.9589200019836426,0.0292799994349479,10.010000228881836,7.980000019073486,-0.3849999904632568
15.477849710982591,-0.0985759943723678,-0.9372040033340454,0.0258639995008707,8.015000343322754,6.527500152587891,-4.199999809265137
15.498161849710915,-0.1320039927959442,-0.9440360069274902,0.0051239999011158,3.202500104904175,5.355000019073486,-3.6575000286102295
15.518473988439238,-0.1442039906978607,-0.9547719955444336,-0.0097599998116493,0.8224999904632568,3.307500123977661,-4.550000190734863
15.538786127167562,-0.130295991897583,-0.972827970981598,-0.0185439996421337,-3.5,-0.1050000041723251,-4.672500133514404
15.559098265895885,-0.1412760019302368,-0.9935680031776428,-0.0253759995102882,-6.597499847412109,-2.0824999809265137,-2.6075000762939453
15.579410404624209,-0.1317600011825561,-0.9923479557037354,-0.0258639995008707,-6.510000228881836,-3.867500066757202,-3.2725000381469727
15.599722543352533,-0.1293199956417083,-0.9842959642410278,-0.0317199975252151,-6.440000057220459,-5.722499847412109,-4.21750020980835
15.620034682080856,-0.1271239966154098,-0.986735999584198,-0.0326960012316703,-6.702499866485596,-7.157500267028809,-4.8125
15.64034682080918,-0.1368840038776397,-0.9901520013809204,-0.0492879971861839,-7.647500038146973,-8.260000228881836,-5.09250020980835
15.660658959537503,-0.1490840017795562,-0.9960079789161682,-0.052947998046875,-7.980000019073486,-9.484999656677246,-4.952499866485596
15.680971098265827,-0.1266359984874725,-1.0106480121612549,-0.0651479959487915,-7.769999980926514,-9.99250030517578,-5.09250020980835
15.70128323699415,-0.0875959992408752,-1.0062559843063354,-0.071492001414299,-6.264999866485596,-9.607500076293944,-6.177500247955322
15.721595375722474,-0.057583998888731,-1.0021079778671265,-0.0719799995422363,-4.585000038146973,-8.417500495910645,-6.947500228881836
15.741907514450798,-0.0326960012316703,-0.9823439717292786,-0.0739319995045661,-2.765000104904175,-7.28000020980835,-8.207500457763672
15.762219653179121,-0.0319640003144741,-1.0057679414749146,-0.1005280017852783,-4.322500228881836,-5.442500114440918,-7.962500095367432
15.782531791907445,-0.0287919994443655,-1.02211594581604,-0.114436000585556,-4.287499904632568,-3.3949999809265137,-6.422500133514404
15.802843930635769,-0.0458719991147518,-1.0467599630355835,-0.1417640000581741,-3.2725000381469727,-2.240000009536743,-3.377500057220459
15.823156069364092,-0.0480679981410503,-1.0355359315872192,-0.1293199956417083,-1.347499966621399,-1.9774999618530276,-0.875
15.843468208092416,0.0036599999293684,-0.9838079810142516,-0.1312720030546188,-1.5399999618530271,-1.2424999475479126,-0.1749999970197677
15.86378034682074,0.0634399950504303,-0.9611159563064576,-0.1200480014085769,-5.635000228881836,2.694999933242798,0.6650000214576721
15.884092485549063,0.0890600010752677,-0.9567239880561828,-0.1132159978151321,-10.289999961853027,6.264999866485596,0.4550000131130218
15.904404624277387,0.0541680008172988,-1.0145519971847534,-0.0854000002145767,-13.212499618530272,10.46500015258789,-1.3825000524520874
15.92471676300571,0.0636840015649795,-1.0452959537506104,-0.0795440003275871,-10.09749984741211,10.727499961853027,-2.380000114440918
15.945028901734034,0.0763719975948333,-1.0570080280303955,-0.0710039958357811,-4.900000095367432,11.585000038146973,-2.922499895095825
15.965341040462357,0.0944279953837394,-1.0467599630355835,-0.0512399971485137,-0.0350000001490116,10.605000495910645,-4.829999923706055
15.985653179190681,0.1061399951577186,-1.0257760286331177,-0.0490439981222152,4.672500133514404,12.005000114440918,-7.402500152587891
16.005965317919006,0.1310279965400695,-0.9916160106658936,-0.056607998907566,7.804999828338623,13.19499969482422,-9.362500190734863
16.026277456647332,0.1154119968414306,-0.9698999524116516,-0.0487999990582466,8.242500305175781,13.96500015258789,-8.242500305175781
16.046589595375657,0.0636840015649795,-0.9786840081214904,-0.0436760000884532,6.019999980926514,12.932499885559082,-5.547500133514404
16.066901734103983,0.0524599999189376,-0.9806360006332396,-0.0446520000696182,3.184999942779541,4.829999923706055,-3.447499990463257
16.087213872832308,0.0600240007042884,-0.9686799645423888,-0.057583998888731,4.269999980926514,0.7699999809265137,-3.115000009536743
16.107526011560633,0.0717360004782676,-0.9869799613952636,-0.0761279985308647,2.047499895095825,-3.255000114440918,-0.3675000071525574
16.12783815028896,0.0961359962821006,-1.001376032829285,-0.0868639945983886,2.4674999713897705,-5.355000019073486,1.1375000476837158
16.148150289017284,0.1110199987888336,-1.0003999471664429,-0.1027240008115768,3.867500066757202,-5.722499847412109,2.747499942779541
16.16846242774561,0.1178519949316978,-1.0099159479141235,-0.0963799953460693,5.284999847412109,-5.897500038146973,5.039999961853027
16.188774566473935,0.104432001709938,-1.0089399814605713,-0.0834480002522468,7.402500152587891,-5.09250020980835,6.789999961853027
16.20908670520226,0.0844239965081214,-1.0001559257507324,-0.0795440003275871,10.237500190734863,-3.5174999237060547,7.052500247955322
16.229398843930586,0.0690519958734512,-0.98990797996521,-0.0646599978208541,11.532500267028809,-2.414999961853028,7.315000057220459
16.24971098265891,0.0602679997682571,-0.9813680052757264,-0.0539239980280399,13.19499969482422,-1.3825000524520874,8.417500495910645
16.270023121387236,0.0548999980092048,-0.9789279699325562,-0.0427000001072883,13.895000457763672,0.2100000083446502,10.1850004196167
16.29033526011556,0.0502640008926391,-0.9835639595985411,-0.052947998046875,14.052499771118164,2.9574999809265137,11.707500457763672
16.310647398843887,0.0568519979715347,-0.9789279699325562,-0.0629519969224929,14.332500457763672,6.230000019073486,13.230000495910645
16.330959537572213,0.0692960023880004,-0.9964959621429444,-0.0929640009999275,12.1274995803833,9.677499771118164,13.037500381469728
16.351271676300538,0.0670999959111213,-1.002351999282837,-0.1137039959430694,10.482500076293944,13.824999809265137,11.585000038146973
16.371583815028863,0.0361119993031024,-1.030900001525879,-0.1115079969167709,7.175000190734863,16.22249984741211,10.342499732971191
16.39189595375719,0.0280600003898143,-1.0460280179977417,-0.1215119957923889,6.019999980926514,17.832500457763672,8.4350004196167
16.412208092485514,-0.0871080011129379,-1.1050759553909302,-0.1105320006608963,3.255000114440918,18.51499938964844,6.125
16.43252023121384,-0.1551840007305145,-1.1084920167922974,-0.0692960023880004,6.369999885559082,14.47249984741211,-0.962499976158142
16.452832369942165,-0.1671399921178817,-0.9886879920959472,-0.0531919971108436,13.96500015258789,9.397500038146973,-6.597499847412109
16.47314450867049,-0.1434720009565353,-0.8903560042381287,-0.0675880014896392,14.385000228881836,5.337500095367432,-4.480000019073486
16.493456647398816,-0.0900359973311424,-0.8722999691963196,-0.0629519969224929,6.965000152587891,2.5199999809265137,0.962499976158142
16.51376878612714,-0.0544119998812675,-0.9279319643974304,-0.0580720007419586,-5.284999847412109,1.3300000429153442,5.179999828338623
16.534080924855466,-0.0629519969224929,-1.013819932937622,-0.037331998348236,-13.49250030517578,-0.5950000286102295,5.985000133514404
16.55439306358379,-0.0819839984178543,-1.0450519323349,-0.0304999984800815,-13.895000457763672,-2.5199999809265137,4.497499942779541
16.574705202312117,-0.0934519991278648,-1.024067997932434,-0.0009759999811649,-10.482500076293944,-4.602499961853027,3.377500057220459
16.595017341040442,-0.1046760007739067,-1.012112021446228,0.0190319996327161,-8.27750015258789,-6.789999961853027,3.569999933242798
16.615329479768768,-0.0973559990525245,-1.014796018600464,0.041967999190092,-6.159999847412109,-8.382499694824219,3.692500114440918
16.635641618497093,-0.0690519958734512,-1.02675199508667,0.0580720007419586,-4.445000171661377,-9.782500267028809,3.849999904632568
16.65595375722542,-0.0407480001449584,-1.0296800136566162,0.0732000023126602,-1.4524999856948853,-9.904999732971191,2.817500114440918
16.676265895953744,-0.0060999998822808,-1.047003984451294,0.0983319953083992,3.920000076293945,-9.59000015258789,5.635000228881836
16.69657803468207,0.0121999997645616,-1.0016199350357056,0.1085800006985664,5.232500076293945,-9.607500076293944,7.332499980926514
16.716890173410395,0.0129319997504353,-0.9957639575004578,0.114436000585556,2.362499952316284,-8.4350004196167,9.625
16.73720231213872,-0.0024399999529123,-0.994055986404419,0.1039439961314201,1.680000066757202,-6.40500020980835,10.6225004196167
16.757514450867045,-0.0231800004839897,-0.9635559916496276,0.1049199998378753,3.692500114440918,-4.322500228881836,9.730000495910645
16.77782658959537,-0.0300120003521442,-0.9674599766731262,0.0919879972934722,1.8025000095367432,-2.047499895095825,8.6274995803833
16.798138728323696,-0.0307439994066953,-0.972827970981598,0.1034559980034828,1.9424999952316284,0.6474999785423279,7.367499828338623
16.81845086705202,-0.0609999969601631,-0.954039990901947,0.0741759985685348,4.007500171661377,3.0799999237060547,3.9375
16.838763005780347,-0.0485559999942779,-0.9189040064811708,0.0907679945230484,6.054999828338623,4.427500247955322,-1.190000057220459
16.859075144508672,-0.0302559994161129,-0.9257360100746156,0.0736880004405975,3.762500047683716,5.477499961853027,-5.232500076293945
16.879387283236998,-0.052216000854969,-0.9550159573554992,0.0649039968848228,1.3650000095367432,6.632500171661377,-7.332499980926514
16.899699421965323,-0.0910120010375976,-0.9642879962921144,0.0534359999001026,0.2450000047683715,6.387499809265137,-9.11750030517578
16.92001156069365,-0.0854000002145767,-0.987223982810974,0.0624639987945556,-0.5950000286102295,4.304999828338623,-10.587499618530272
16.940323699421974,-0.0810080021619796,-1.0062559843063354,0.0607559978961944,-0.9449999928474426,2.7300000190734863,-11.00749969482422
16.9606358381503,-0.0856439992785453,-1.0133320093154907,0.0234239995479583,0.1924999952316284,1.1375000476837158,-10.97249984741211
16.980947976878625,-0.0680759996175766,-1.0057679414749146,0.0253759995102882,2.2925000190734863,0.6825000047683716,-11.462499618530272
17.00126011560695,-0.062219999730587,-1.012355923652649,0.0146399997174739,2.414999961853028,0.3849999904632568,-11.619999885559082
17.021572254335275,-0.0463600009679794,-1.0174800157546997,0.0141519997268915,1.9774999618530276,0.612500011920929,-10.989999771118164
17.0418843930636,-0.0234239995479583,-1.034071922302246,0.0202520005404949,1.4350000619888306,1.7675000429153442,-8.890000343322754
17.062196531791926,-0.0185439996421337,-1.051151990890503,0.0039039999246597,1.8725000619888303,3.7100000381469727,-6.807499885559082
17.08250867052025,-0.0278159994632005,-1.0487120151519775,-0.0026839999482035,4.445000171661377,5.757500171661377,-6.019999980926514
17.102820809248577,-0.0285479985177516,-1.0055240392684937,-0.0121999997645616,7.909999847412109,6.369999885559082,-6.545000076293945
17.123132947976902,-0.0261080004274845,-0.9855159521102904,-0.0075639998540282,8.242500305175781,6.615000247955322,-6.894999980926514
17.143445086705228,-0.0453839972615242,-0.9625799655914308,0.0034159999340772,6.002500057220459,4.952499866485596,-5.985000133514404
17.163757225433553,-0.0588039979338645,-0.9781959652900696,0.0131759997457265,2.9574999809265137,2.677500009536743,-5.162499904632568
17.18406936416188,-0.0839359983801841,-1.0326080322265625,0.0109799997881054,0.8924999833106995,1.4175000190734863,-6.195000171661377
17.204381502890204,-0.0832040011882782,-0.973315954208374,0.0229359995573759,10.395000457763672,-1.347499966621399,-7.192500114440918
17.22469364161853,-0.0444080010056495,-0.9869799613952636,0.0224479995667934,5.284999847412109,-4.09499979019165,-5.670000076293945
17.245005780346855,0.0517279990017414,-1.028216004371643,-0.033671997487545,0.4025000035762787,-5.337500095367432,-8.260000228881836
17.26531791907518,0.0641719996929168,-0.9659959673881532,-0.0119559997692704,2.6600000858306885,-3.5174999237060547,-8.522500038146973
17.285630057803505,0.018300000578165,-0.9921039938926696,-0.018300000578165,-3.289999961853028,-0.4375,-5.494999885559082
17.30594219653183,0.0192760005593299,-0.9855159521102904,-0.0187879987061023,-2.870000123977661,1.0149999856948853,-5.565000057220459
17.326254335260156,0.009515999816358,-1.0025960206985474,-0.013663999736309,-4.637499809265137,2.117500066757202,-4.199999809265137
17.34656647398848,0.0012199999764561,-1.0172359943389893,-0.0041479999199509,-6.159999847412109,2.887500047683716,-3.5
17.366878612716807,0.0026839999482035,-0.9869799613952636,-0.0034159999340772,-7.087500095367432,3.552500009536743,-2.380000114440918
17.387190751445132,0.0026839999482035,-0.9808799624443054,-0.0080519998446106,-10.587499618530272,4.375,-0.0874999985098838
17.407502890173458,0.009515999816358,-0.9889319539070128,-0.0290360003709793,-13.125,4.497499942779541,1.0850000381469729
17.427815028901783,0.0258639995008707,-0.9564799666404724,-0.0407480001449584,-13.5625,4.409999847412109,0.699999988079071
17.44812716763011,0.0222040005028247,-0.9647759795188904,-0.0592919997870922,-16.537500381469727,5.09250020980835,0.699999988079071
17.468439306358434,0.0192760005593299,-0.9647759795188904,-0.0722239986062049,-18.76000022888184,4.829999923706055,1.0499999523162842
17.48875144508676,0.0092719998210668,-0.986735999584198,-0.0780799984931945,-20.107500076293945,4.637499809265137,0.9800000190734864
17.509063583815085,-0.0024399999529123,-1.0289479494094849,-0.0941839963197708,-21.052499771118164,3.5350000858306885,1.4524999856948853
17.52937572254341,-0.0087839998304843,-1.044808030128479,-0.1073599979281425,-18.357500076293945,1.9600000381469729,0.7875000238418579
17.549687861271735,-0.0102479998022317,-1.053347945213318,-0.1129719987511634,-14.420000076293944,0.5249999761581421,0.4025000035762787
17.57000000000006,0.0017079999670386,-1.054811954498291,-0.1066280007362365,-10.307499885559082,-0.4724999964237213,0.1574999988079071
17.590312138728386,0.0114679997786879,-1.0560319423675537,-0.1005280017852783,-6.369999885559082,-0.2275000065565109,0.5774999856948853
17.61062427745671,0.0141519997268915,-1.038707971572876,-0.0868639945983886,-1.680000066757202,0.8924999833106995,0.3675000071525574
17.630936416185037,0.0131759997457265,-1.013819932937622,-0.0717360004782676,1.5049999952316284,2.065000057220459,-0.1924999952316284
17.651248554913362,0.0126879997551441,-0.998203992843628,-0.0570959970355033,2.572499990463257,3.1675000190734863,-0.7524999976158142
17.671560693641688,0.0156159996986389,-0.9886879920959472,-0.047580000013113,2.4674999713897705,4.077499866485596,-1.0674999952316284
17.691872832370013,0.0075639998540282,-0.9789279699325562,-0.0378200002014637,1.3300000429153442,4.65500020980835,-1.0674999952316284
17.71218497109834,-0.0053679998964071,-0.9823439717292786,-0.0400159992277622,-0.7350000143051147,4.21750020980835,-0.7524999976158142
17.732497109826664,-0.0158599987626075,-0.9796599745750428,-0.0427000001072883,-1.9600000381469729,2.940000057220459,-0.4200000166893005
17.75280924855499,-0.0197639986872673,-0.9911279678344728,-0.0497759990394115,-3.132499933242798,1.0149999856948853,0.0874999985098838
17.773121387283314,-0.0173240005970001,-1.0016199350357056,-0.0563639998435974,-3.289999961853028,-0.9800000190734864,0.5074999928474426
17.79343352601164,-0.0170799996703863,-1.0067440271377563,-0.0634399950504303,-2.4674999713897705,-2.992500066757202,0.8224999904632568
17.813745664739965,-0.0100039998069405,-1.007475972175598,-0.0605119988322258,-1.2949999570846558,-4.567500114440918,1.0850000381469729
17.83405780346829,-0.0029279999434947,-1.0072319507598877,-0.0614879988133907,-0.4375,-5.477499961853027,1.3650000095367432
17.854369942196616,0.0056119998916983,-1.0089399814605713,-0.0602679997682571,0.4724999964237213,-5.757500171661377,1.5399999618530271
17.87468208092494,0.0112239997833967,-1.0025960206985474,-0.0444080010056495,1.4700000286102295,-5.704999923706055,1.5575000047683716
17.894994219653267,0.0173240005970001,-1.00381600856781,-0.041967999190092,1.8725000619888303,-4.882500171661377,1.3825000524520874
17.915306358381592,0.0117119997739791,-1.0043039321899414,-0.0434319972991943,2.484999895095825,-4.130000114440918,1.1375000476837158
17.935618497109918,0.0053679998964071,-1.0030839443206787,-0.0400159992277622,3.0975000858306885,-3.552500009536743,0.612500011920929
17.955930635838243,0.0014639999717473,-1.0003999471664429,-0.0358680002391338,3.902499914169312,-3.622499942779541,0.2800000011920929
17.97624277456657,-0.018300000578165,-1.010159969329834,-0.0470919981598854,4.059999942779541,-3.640000104904175,0.2450000047683715
17.996554913294894,-0.0246439985930919,-1.0030839443206787,-0.041967999190092,5.302500247955322,-4.497499942779541,0.2800000011920929
18.01686705202322,-0.0231800004839897,-0.9977160096168518,-0.0380639992654323,5.84499979019165,-5.547500133514404,0.4900000095367431
18.037179190751544,-0.0048799999058246,-0.993079960346222,-0.0405040010809898,5.320000171661377,-6.579999923706055,0.9275000095367432
18.05749132947987,0.0053679998964071,-0.9852719902992249,-0.0397720001637935,4.672500133514404,-7.087500095367432,1.3650000095367432
18.077803468208195,0.0058559998869895,-0.9862479567527772,-0.0380639992654323,3.307500123977661,-7.034999847412109,1.662500023841858
18.09811560693652,0.0039039999246597,-0.9962520003318788,-0.0422119982540607,1.7324999570846558,-6.422500133514404,1.715000033378601
18.118427745664846,0.0080519998446106,-0.9896639585494996,-0.0409919992089271,1.3825000524520874,-5.635000228881836,1.399999976158142
18.13873988439317,0.0036599999293684,-1.0104039907455444,-0.0456280000507831,0.2975000143051147,-4.602499961853027,1.277500033378601
18.159052023121497,0.0002439999952912,-1.0011320114135742,-0.0441639982163906,0.5600000023841858,-4.199999809265137,0.7875000238418579
18.179364161849822,-0.0014639999717473,-1.0003999471664429,-0.0414799973368644,0.6299999952316284,-3.8324999809265137,0.612500011920929
18.199676300578147,-0.0007319999858736,-0.9996680021286012,-0.041967999190092,0.875,-3.762500047683716,0.5249999761581421
